timestamp,yaw,pitch,roll,ax,ay,az,gx,gy,gz,mx,my,mz
1772747257.2020447,-0.08990909991924698,1.5361655139175883,-6.699172481794193,-0.26383511220653305,-1.1367553779586896,9.75874016137986,0.0,0.001090830782496456,0.002181661564992912,6.0,60.6875,-81.25
1772747257.4884248,-0.08990909991924698,1.5361655139175883,-6.699172481794193,-0.26670156350706736,-1.142751319123979,9.768162870933638,0.0,-0.002181661564992912,0.001090830782496456,6.25,61.1875,-81.25
1772747257.6849847,-0.08990909991924698,1.5361655139175883,-6.699172481794193,-0.27216125431003513,-1.131107642814087,9.781642499451495,0.0,-0.001090830782496456,0.0,4.875,61.5,-82.0625
1772747257.7344491,-0.08990909991924698,1.5361655139175883,-6.699172481794193,-0.27216125431003513,-1.131107642814087,9.781642499451495,0.0,-0.001090830782496456,0.0,4.875,61.5,-82.0625
1772747257.7754233,-0.08990909991924698,1.5361655139175883,-6.699172481794193,-0.2747834023078552,-1.130737123919594,9.784438176744368,0.0,-0.001090830782496456,0.0,6.6875,60.75,-81.25
1772747257.8152514,-0.08990909991924698,1.5361655139175883,-6.699172481794193,-0.2747834023078552,-1.130737123919594,9.784438176744368,0.0,-0.001090830782496456,0.0,6.6875,60.75,-81.25
1772747257.8394644,-0.08990909991924698,1.5361655139175883,-6.699172481794193,-0.2765284125090921,-1.1304905477342762,9.782953557045694,0.0,-0.002181661564992912,0.001090830782496456,6.6875,60.75,-81.25
1772747257.8610728,-0.08990909991924698,1.5361655139175883,-6.699172481794193,-0.2743445855976547,-1.1303264540373836,9.778620447513196,-0.001090830782496456,0.002181661564992912,-0.001090830782496456,6.0,61.875,-82.0
1772747257.8966691,-0.08990909991924698,1.5361655139175883,-6.699172481794193,-0.2743445855976547,-1.1303264540373836,9.778620447513196,-0.001090830782496456,0.002181661564992912,-0.001090830782496456,6.0,61.875,-82.0
1772747257.9224682,-0.08990909991924698,1.5361655139175883,-6.699172481794193,-0.2728912731830381,-1.1302172515151483,9.775736811523323,0.0,-0.003272492347489368,0.0,6.0,61.875,-82.0
1772747258.008343,4.964611926493102e-06,1.5360806998638024,-6.698803408169919,-0.2734902003749803,-1.1339202495894232,9.773817783984388,3.423483349084482e-06,-0.0021816588789105138,0.001090830782496456,5.465398333565028,61.88365254496105,-81.5625
1772747258.0683622,4.964611926493102e-06,1.5360806998638024,-6.698803408169919,-0.2727750309814975,-1.1375461856846711,9.775035914247342,-0.0010891176977807146,-0.0010925411811297991,-0.002181661564992912,5.466477164874275,61.19615339141757,-81.25
1772747258.1474786,4.964611926493102e-06,1.5360806998638024,-6.698803408169919,-0.2712482343998582,-1.1385082723309776,9.776696456384077,-1.711741674542241e-06,0.0010908294394552569,0.0,5.466477164874275,61.19615339141757,-81.25
1772747258.189273,4.964611926493102e-06,1.5360806998638024,-6.698803408169919,-0.2712482343998582,-1.1385082723309776,9.776696456384077,-1.711741674542241e-06,0.0010908294394552569,0.0,5.466477164874275,61.19615339141757,-81.25
1772747258.2492805,4.964611926493102e-06,1.5360806998638024,-6.698803408169919,-0.27513596948352353,-1.13401211786658,9.769620583971026,-1.711741674542241e-06,0.0010908294394552569,-0.001090830782496456,4.777899180021544,61.8825737136518,-80.5
1772747258.3201241,4.964611926493102e-06,1.5360806998638024,-6.698803408169919,-0.27513596948352353,-1.13401211786658,9.769620583971026,-1.711741674542241e-06,0.0010908294394552569,-0.001090830782496456,4.777899180021544,61.8825737136518,-80.5
1772747258.3624148,4.964611926493102e-06,1.5360806998638024,-6.698803408169919,-0.2679414047327431,-1.1320068901105411,9.773177077688596,-0.0021816588789105138,-3.423483349084482e-06,-0.001090830782496456,5.9028977949108805,61.88433907397603,-82.0
1772747258.3992877,4.964611926493102e-06,1.5360806998638024,-6.698803408169919,-0.2679414047327431,-1.1320068901105411,9.773177077688596,-0.0021816588789105138,-3.423483349084482e-06,-0.001090830782496456,5.9028977949108805,61.88433907397603,-82.0
1772747258.4397519,4.964611926493102e-06,1.5360806998638024,-6.698803408169919,-0.26803151012645515,-1.1348219330043803,9.775459421418796,-0.0010942529228043414,0.0021799471372359715,0.0,5.9028977949108805,61.88433907397603,-82.0625
1772747258.4843335,4.964611926493102e-06,1.5360806998638024,-6.698803408169919,-0.26803151012645515,-1.1348219330043803,9.775459421418796,-0.0010942529228043414,0.0021799471372359715,0.0,5.9028977949108805,61.88433907397603,-82.0625
1772747258.5238726,4.964611926493102e-06,1.5360806998638024,-6.698803408169919,-0.26809672343941693,-1.1333502050153546,9.773633183968476,-5.135225023626723e-06,0.003272488318365771,-0.002181661564992912,5.9028977949108805,61.88433907397603,-82.0625
1772747258.559809,4.964611926493102e-06,1.5360806998638024,-6.698803408169919,-0.26816026109095875,-1.1372902337055957,9.771609047737481,0.0010891176977807146,0.0010925411811297991,-0.001090830782496456,4.7773107265801364,62.25757325194825,-80.875
1772747258.6212606,4.964611926493102e-06,1.5360806998638024,-6.698803408169919,-0.26816026109095875,-1.1372902337055957,9.771609047737481,0.0010891176977807146,0.0010925411811297991,-0.001090830782496456,4.7773107265801364,62.25757325194825,-80.875
1772747258.645902,4.964611926493102e-06,1.5360806998638024,-6.698803408169919,-0.2648320489992759,-1.1383326899680846,9.777761026709692,0.0,0.0,0.0,5.09098724870999,61.5080645532232,-81.5625
1772747258.6910307,4.964611926493102e-06,1.5360806998638024,-6.698803408169919,-0.26261716103082605,-1.1390264329657713,9.78185509999359,1.711741674542241e-06,-0.0010908294394552569,-0.001090830782496456,5.09098724870999,61.5080645532232,-81.5625
1772747258.7244265,4.964611926493102e-06,1.5360806998638024,-6.698803408169919,-0.26114317782974245,-1.1394881111811148,9.784579660030229,1.711741674542241e-06,-0.0010908294394552569,-0.001090830782496456,5.9028977949108805,61.88433907397603,-81.5625
1772747258.7545114,4.964611926493102e-06,1.5360806998638024,-6.698803408169919,-0.2601622584748925,-1.1397953528761422,9.783047712591962,-0.0021816588789105138,-3.423483349084482e-06,0.001090830782496456,5.9028977949108805,61.88433907397603,-81.5625
1772747258.7940545,4.964611926493102e-06,1.5360806998638024,-6.698803408169919,-0.2595094676018271,-1.1399998187920686,9.78202821868477,5.135225023626723e-06,-0.003272488318365771,0.001090830782496456,4.403488095166506,61.50698572191395,-81.5625
1772747258.8282416,4.964611926493102e-06,1.5360806998638024,-6.698803408169919,-0.2624253993367295,-1.136796030166287,9.788039980292666,0.0,0.0,-0.001090830782496456,4.403488095166506,61.50698572191395,-81.5625
1772747258.8541596,4.964611926493102e-06,1.5360806998638024,-6.698803408169919,-0.2643659193332153,-1.134663944624493,9.792040740486943,1.711741674542241e-06,-0.0010908294394552569,-0.001090830782496456,4.403488095166506,61.50698572191395,-81.5625
1772747258.8738494,4.964611926493102e-06,1.5360806998638024,-6.698803408169919,-0.2643659193332153,-1.134663944624493,9.792040740486943,1.711741674542241e-06,-0.0010908294394552569,-0.001090830782496456,4.403488095166506,61.50698572191395,-81.5625
1772747258.9042594,4.964611926493102e-06,1.5360806998638024,-6.698803408169919,-0.2643659193332153,-1.134663944624493,9.792040740486943,1.711741674542241e-06,-0.0010908294394552569,-0.001090830782496456,4.403488095166506,61.50698572191395,-81.5625
1772747258.9291475,4.964611926493102e-06,1.5360806998638024,-6.698803408169919,-0.26565731371384793,-1.1332450655133854,9.788012978290176,-0.002183370620585056,0.0010874059561061724,0.0,4.4028996417250985,61.8819852602104,-80.0625
1772747258.956717,4.964611926493102e-06,1.5360806998638024,-6.698803408169919,-0.266511473068349,-1.1356459249036475,9.78533254754128,1.711741674542241e-06,-0.0010908294394552569,-0.001090830782496456,4.4028996417250985,61.8819852602104,-80.0625
1772747259.00274,4.964611926493102e-06,1.5360806998638024,-6.698803408169919,-0.2670799065771843,-1.1372436700085105,9.783548750820263,-3.423483349084482e-06,0.0021816588789105138,-0.001090830782496456,5.903976626220128,61.196839920432545,-81.5625
1772747259.0195825,4.964611926493102e-06,1.5360806998638024,-6.698803408169919,-0.2670799065771843,-1.1372436700085105,9.783548750820263,-3.423483349084482e-06,0.0021816588789105138,-0.001090830782496456,5.903976626220128,61.196839920432545,-81.5625
1772747259.0456614,4.964611926493102e-06,1.5360806998638024,-6.698803408169919,-0.2708033003162819,-1.1383122007078037,9.779016542321422,-0.0021816588789105138,-3.423483349084482e-06,-0.001090830782496456,5.903976626220128,61.196839920432545,-81.5625
1772747259.0882719,4.964611926493102e-06,1.5360806998638024,-6.698803408169919,-0.2732864264366075,-1.1356781883631273,9.776000408193529,-0.0010908294394552569,-1.711741674542241e-06,-0.001090830782496456,5.903976626220128,61.196839920432545,-81.5625
1772747259.1027286,4.964611926493102e-06,1.5360806998638024,-6.698803408169919,-0.2749336699513585,-1.1372703901603771,9.773993204623842,-0.0021799471372359715,-0.0010942529228043414,-0.001090830782496456,4.777899180021544,61.8825737136518,-82.0625
1772747259.1230006,4.964611926493102e-06,1.5360806998638024,-6.698803408169919,-0.2726847845207234,-1.138324733490398,9.776002544777468,-0.0021799471372359715,-0.0010942529228043414,0.0,4.777899180021544,61.8825737136518,-82.0625
1772747259.1418862,4.964611926493102e-06,1.5360806998638024,-6.698803408169919,-0.2726847845207234,-1.138324733490398,9.776002544777468,-0.0021799471372359715,-0.0010942529228043414,0.0,4.777899180021544,61.8825737136518,-82.0625
1772747259.1751466,4.964611926493102e-06,1.5360806998638024,-6.698803408169919,-0.27118292720834253,-1.1423714947875263,9.773994626496586,0.0010925411811297991,-0.0010891176977807146,-0.001090830782496456,4.777899180021544,61.8825737136518,-82.0625
1772747259.2056885,4.964611926493102e-06,1.5360806998638024,-6.698803408169919,-0.2668383503550123,-1.14505932004549,9.772658379310576,-0.0010908294394552569,-1.711741674542241e-06,-0.001090830782496456,5.903486248352288,61.50933953567958,-80.5
1772747259.2366154,4.964611926493102e-06,1.5360806998638024,-6.698803408169919,-0.26730268893998965,-1.1401630717321065,9.771769121735145,0.0,0.0,0.001090830782496456,5.903486248352288,61.50933953567958,-80.5
1772747259.2827125,4.964611926493102e-06,1.5360806998638024,-6.698803408169919,-0.2676117010812902,-1.1369046731742274,9.771177330752355,0.0,0.0,0.002181661564992912,5.09098724870999,61.5080645532232,-81.25
1772747259.3135293,4.964611926493102e-06,1.5360806998638024,-6.698803408169919,-0.2711572036182306,-1.1380866021014313,9.770783500464045,-0.0010959646644788836,0.0032707765766912286,0.0,5.09098724870999,61.5080645532232,-81.25
1772747259.3441796,4.964611926493102e-06,1.5360806998638024,-6.698803408169919,-0.2711572036182306,-1.1380866021014313,9.770783500464045,-0.0010959646644788836,0.0032707765766912286,0.0,5.09098724870999,61.5080645532232,-81.25
1772747259.3708367,4.964611926493102e-06,1.5360806998638024,-6.698803408169919,-0.273516695950706,-1.1388731625994744,9.770521410806548,-0.0010891176977807146,-0.0010925411811297991,-0.001090830782496456,5.465986787006435,61.5086530066646,-81.25
1772747259.4069974,4.964611926493102e-06,1.5360806998638024,-6.698803408169919,-0.2750921609207015,-1.1360515022356792,9.777037216481856,1.711741674542241e-06,-0.0010908294394552569,-0.001090830782496456,5.465986787006435,61.5086530066646,-81.25
1772747259.4223063,4.964611926493102e-06,1.5360806998638024,-6.698803408169919,-0.27614061525913663,-1.1341737187835852,9.781373412372456,-0.0021799471372359715,-0.0010942529228043414,-0.001090830782496456,5.09098724870999,61.5080645532232,-80.875
1772747259.4369354,4.964611926493102e-06,1.5360806998638024,-6.698803408169919,-0.27349324232057676,-1.1329188256924427,9.784259102299169,-0.0010891176977807146,-0.0010925411811297991,-0.001090830782496456,5.09098724870999,61.5080645532232,-80.875
1772747259.4501004,4.964611926493102e-06,1.5360806998638024,-6.698803408169919,-0.27349324232057676,-1.1329188256924427,9.784259102299169,-0.0010891176977807146,-0.0010925411811297991,-0.001090830782496456,5.09098724870999,61.5080645532232,-80.875
1772747259.49383,4.964611926493102e-06,1.5360806998638024,-6.698803408169919,-0.27171569766309006,-1.14211903112472,9.786179496710126,-0.0010925411811297991,0.0010891176977807146,0.0,5.09098724870999,61.5080645532232,-80.875
1772747259.5310845,4.964611926493102e-06,1.5360806998638024,-6.698803408169919,-0.26718765396122135,-1.1482364158868823,9.787457497738407,0.0010925411811297991,-0.0010891176977807146,0.0,5.090398795268582,61.88306409151964,-80.0625
1772747259.5443225,4.964611926493102e-06,1.5360806998638024,-6.698803408169919,-0.2675351465879448,-1.142277393524067,9.784962881439201,-1.711741674542241e-06,0.0010908294394552569,0.001090830782496456,5.090398795268582,61.88306409151964,-80.0625
1772747259.5684538,4.964611926493102e-06,1.5360806998638024,-6.698803408169919,-0.26776639904928234,-1.138311730708255,9.78664785386609,0.0010908294394552569,1.711741674542241e-06,-0.001090830782496456,5.090398795268582,61.88306409151964,-80.0625
1772747259.6177258,4.964611926493102e-06,1.5360806998638024,-6.698803408169919,-0.26776639904928234,-1.138311730708255,9.78664785386609,0.0010908294394552569,1.711741674542241e-06,-0.001090830782496456,5.090398795268582,61.88306409151964,-80.0625
1772747259.6394541,4.964611926493102e-06,1.5360806998638024,-6.698803408169919,-0.27126015338783976,-1.1390229831724643,9.78442407248649,-0.0010908294394552569,-1.711741674542241e-06,0.0,5.903486248352288,61.50933953567958,-82.0625
1772747259.6645942,4.964611926493102e-06,1.5360806998638024,-6.698803408169919,-0.27358520787235663,-1.1394963137421847,9.786289282526951,-1.711741674542241e-06,0.0010908294394552569,-0.001090830782496456,5.903486248352288,61.50933953567958,-82.0625
1772747259.6881669,4.964611926493102e-06,1.5360806998638024,-6.698803408169919,-0.27358520787235663,-1.1394963137421847,9.786289282526951,-1.711741674542241e-06,0.0010908294394552569,-0.001090830782496456,5.903486248352288,61.50933953567958,-82.0625
1772747259.7334814,4.964611926493102e-06,1.5360806998638024,-6.698803408169919,-0.27179264725044555,-1.136460953180109,9.784185447265797,-0.0021816588789105138,-3.423483349084482e-06,0.001090830782496456,5.09334106247562,60.008066400037414,-81.25
1772747259.7520823,4.964611926493102e-06,1.5360806998638024,-6.698803408169919,-0.2705997181807779,-1.134440954633247,9.782785368400878,-0.0010891176977807146,-0.0010925411811297991,0.0,5.09334106247562,60.008066400037414,-81.25
1772747259.803892,4.964611926493102e-06,1.5360806998638024,-6.698803408169919,-0.2705997181807779,-1.134440954633247,9.782785368400878,-0.0010891176977807146,-0.0010925411811297991,0.0,5.09334106247562,60.008066400037414,-81.25
1772747259.8503826,4.964611926493102e-06,1.5360806998638024,-6.698803408169919,-0.269805837210805,-1.1330966681651726,9.78185363155618,-0.0010925411811297991,0.0010891176977807146,0.0,5.903976626220128,61.196839920432545,-82.5
1772747259.8970149,4.964611926493102e-06,1.5360806998638024,-6.698803408169919,-0.2692775182935194,-1.1322020605373329,9.781233571094216,0.0010856942144316301,0.003274200060040313,0.001090830782496456,5.903976626220128,61.196839920432545,-82.5
1772747259.9416823,4.964611926493102e-06,1.5360806998638024,-6.698803408169919,-0.27226578636457155,-1.1349570659232031,9.780820927783308,0.0010959646644788836,-0.0032707765766912286,0.004363323129985824,5.090398795268582,61.88306409151964,-80.5
1772747259.9986558,4.964611926493102e-06,1.5360806998638024,-6.698803408169919,-0.27425444538471516,-1.136790491232073,9.780546318269428,-0.0010908294394552569,-1.711741674542241e-06,0.001090830782496456,5.090398795268582,61.88306409151964,-80.5
1772747260.029575,4.964611926493102e-06,1.5360806998638024,-6.698803408169919,-0.275577875747844,-1.1380106152944234,9.780363568705528,0.0,0.0,0.001090830782496456,5.46716369388925,60.758653930071716,-80.875
1772747260.083928,4.964611926493102e-06,1.5360806998638024,-6.698803408169919,-0.2764533546908308,-1.1421677018170249,9.77689683920488,-0.0010908294394552569,-1.711741674542241e-06,0.001090830782496456,5.46716369388925,60.758653930071716,-80.875
1772747260.1181147,4.964611926493102e-06,1.5360806998638024,-6.698803408169919,-0.27703597614764797,-1.1449341964601172,9.774589769448106,-0.0010925411811297991,0.0010891176977807146,-0.001090830782496456,5.902309341469473,62.25933861227247,-81.25
1772747260.1374884,4.964611926493102e-06,1.5360806998638024,-6.698803408169919,-0.27742895339884116,-1.1434301601525385,9.77305444029663,-0.0021850823622595983,0.0021782353955614293,0.0,5.902309341469473,62.25933861227247,-81.25
1772747260.1767805,4.964611926493102e-06,1.5360806998638024,-6.698803408169919,-0.27769047536966673,-1.1424292407910317,9.772032695897073,-1.711741674542241e-06,0.0010908294394552569,0.0,5.465398333565028,61.88365254496105,-81.25
1772747260.2319283,4.964611926493102e-06,1.5360806998638024,-6.698803408169919,-0.27769047536966673,-1.1424292407910317,9.772032695897073,-1.711741674542241e-06,0.0010908294394552569,0.0,5.465398333565028,61.88365254496105,-81.25
1772747260.2660596,4.964611926493102e-06,1.5360806998638024,-6.698803408169919,-0.2778645153198593,-1.1417631401369506,9.771352736412801,-0.0010908294394552569,-1.711741674542241e-06,-0.001090830782496456,5.465398333565028,61.88365254496105,-81.25
1772747260.290456,4.964611926493102e-06,1.5360806998638024,-6.698803408169919,-0.2779803369625588,-1.1413198575924914,9.770900230971662,-0.0010908294394552569,-1.711741674542241e-06,0.0,4.778978011330792,61.19507456010832,-82.5
1772747260.3030946,4.964611926493102e-06,1.5360806998638024,-6.698803408169919,-0.27805741497196285,-1.1410248580109446,9.767253981948082,0.0010908294394552569,1.711741674542241e-06,-0.001090830782496456,4.778978011330792,61.19507456010832,-82.5
1772747260.3159022,4.964611926493102e-06,1.5360806998638024,-6.698803408169919,-0.27805741497196285,-1.1410248580109446,9.767253981948082,0.0010908294394552569,1.711741674542241e-06,-0.001090830782496456,4.778978011330792,61.19507456010832,-82.5
1772747260.336946,175.58658677550355,-53.304916243497516,-177.73887398727425,-0.2781087095262034,-1.140828539084786,9.764827443954161,-0.0010942529228043414,0.0021799471372359715,-0.001090830782496456,4.778978011330792,61.19507456010832,-82.5
1772747260.3677187,4.964611926493102e-06,1.5360806998638024,-6.698803408169919,-0.2781428454790529,-1.140697891032454,9.766557721732731,0.0010908294394552569,1.711741674542241e-06,-0.001090830782496456,5.465986787006435,61.5086530066646,-80.875
1772747260.4201257,4.964611926493102e-06,1.5360806998638024,-6.698803408169919,-0.27817081175434005,-1.1372658386242749,9.7677092022659,0.0021799471372359715,0.0010942529228043414,-0.001090830782496456,5.465986787006435,61.5086530066646,-80.875
1772747260.4428678,4.964611926493102e-06,1.5360806998638024,-6.698803408169919,-0.27818942299814,-1.1349818460851695,9.761785276283206,3.423483349084482e-06,-0.0021816588789105138,-0.001090830782496456,5.467752147330658,60.383654391775266,-80.875
1772747260.4730566,4.964611926493102e-06,1.5360806998638024,-6.698803408169919,-0.27818942299814,-1.1349818460851695,9.761785276283206,3.423483349084482e-06,-0.0021816588789105138,-0.001090830782496456,5.467752147330658,60.383654391775266,-80.875
1772747260.5080886,4.964611926493102e-06,1.5360806998638024,-6.698803408169919,-0.2748514518042119,-1.1368017329730595,9.757842969716311,0.0,0.0,0.0,5.467752147330658,60.383654391775266,-80.875
1772747260.5225444,4.964611926493102e-06,1.5360806998638024,-6.698803408169919,-0.27597517685102035,-1.1380180965474713,9.76525474385645,0.0,0.0,-0.002181661564992912,5.465398333565028,61.88365254496105,-80.875
1772747260.553622,4.964611926493102e-06,1.5360806998638024,-6.698803408169919,-0.2767230033168401,-1.138827572918571,9.770187196751772,5.135225023626723e-06,-0.003272488318365771,-0.002181661564992912,5.465398333565028,61.88365254496105,-80.875
1772747260.5852687,4.964611926493102e-06,1.5360806998638024,-6.698803408169919,-0.27722592265606366,-1.1360211628123082,9.770124577347179,-0.0010908294394552569,-1.711741674542241e-06,0.002181661564992912,5.465398333565028,61.88365254496105,-80.875
1772747260.6227295,4.964611926493102e-06,1.5360806998638024,-6.698803408169919,-0.2742102530895641,-1.1374933866450418,9.763392681418289,-0.0010942529228043414,0.0021799471372359715,0.0,4.403488095166506,61.50698572191395,-81.25
1772747260.639916,4.964611926493102e-06,1.5360806998638024,-6.698803408169919,-0.27220335868029505,-1.1384731351599082,9.765602903292455,0.0,0.0,0.001090830782496456,4.403488095166506,61.50698572191395,-81.25
1772747260.670009,4.964611926493102e-06,1.5360806998638024,-6.698803408169919,-0.27220335868029505,-1.1384731351599082,9.765602903292455,0.0,0.0,0.001090830782496456,4.403488095166506,61.50698572191395,-81.25
1772747260.713747,4.964611926493102e-06,1.5360806998638024,-6.698803408169919,-0.270867792869406,-1.139125146852044,9.767073781259917,-0.002183370620585056,0.0010874059561061724,-0.002181661564992912,4.403488095166506,61.50698572191395,-81.25
1772747260.7411942,4.964611926493102e-06,1.5360806998638024,-6.698803408169919,-0.26997898874150694,-1.1395590533497126,9.76805263411648,0.0010908294394552569,1.711741674542241e-06,0.0,4.778487633462952,61.50757417535536,-81.5625
1772747260.776747,4.964611926493102e-06,1.5360806998638024,-6.698803408169919,-0.2693927487029723,-1.1365027056880717,9.76870404975802,1.711741674542241e-06,-0.0010908294394552569,0.0,4.778487633462952,61.50757417535536,-81.5625
1772747260.8165948,4.964611926493102e-06,1.5360806998638024,-6.698803408169919,-0.2693927487029723,-1.1365027056880717,9.76870404975802,1.711741674542241e-06,-0.0010908294394552569,0.0,4.778487633462952,61.50757417535536,-81.5625
1772747260.8525236,4.964611926493102e-06,1.5360806998638024,-6.698803408169919,-0.2723424709148544,-1.1378190972296656,9.772482671297993,0.0010891176977807146,0.0010925411811297991,0.001090830782496456,5.903486248352288,61.50933953567958,-81.5625
1772747260.881998,4.964611926493102e-06,1.5360806998638024,-6.698803408169919,-0.2709603705075197,-1.13868989191555,9.774997301722879,0.0010891176977807146,0.0010925411811297991,0.0,5.903486248352288,61.50933953567958,-81.5625
1772747260.9151,4.964611926493102e-06,1.5360806998638024,-6.698803408169919,-0.2700405981255117,-1.139269396051592,9.780015871887697,5.135225023626723e-06,-0.003272488318365771,0.0,3.9654001803792456,61.88129873119542,-81.25
1772747260.946309,4.964611926493102e-06,1.5360806998638024,-6.698803408169919,-0.269428499879816,-1.1396550495806423,9.78335567427128,0.0010925411811297991,-0.0010891176977807146,0.0,3.9654001803792456,61.88129873119542,-81.25
1772747260.9945865,4.964611926493102e-06,1.5360806998638024,-6.698803408169919,-0.2723715121036666,-1.136571839287397,9.78557827544952,-0.0032707765766912286,-0.0010959646644788836,0.002181661564992912,5.46480988012362,62.258652083257495,-81.25
1772747261.0468166,4.964611926493102e-06,1.5360806998638024,-6.698803408169919,-0.2743300538630386,-1.1345199972789575,9.783712279998236,0.0010925411811297991,-0.0010891176977807146,0.0,5.46480988012362,62.258652083257495,-81.25
1772747261.0961492,4.964611926493102e-06,1.5360806998638024,-6.698803408169919,-0.2743300538630386,-1.1345199972789575,9.783712279998236,0.0010925411811297991,-0.0010891176977807146,0.0,5.46480988012362,62.258652083257495,-81.25
1772747261.1461787,4.964611926493102e-06,1.5360806998638024,-6.698803408169919,-0.2722883339367695,-1.1331492701629287,9.782470480869941,-0.0010891176977807146,-0.0010925411811297991,-0.002181661564992912,4.403978473034346,61.194486106666915,-82.5
1772747261.1823075,4.964611926493102e-06,1.5360806998638024,-6.698803408169919,-0.2675739861845782,-1.1389220325768195,9.781644077421866,-0.0010908294394552569,-1.711741674542241e-06,-0.001090830782496456,4.403978473034346,61.194486106666915,-82.5
1772747261.225442,4.964611926493102e-06,1.5360806998638024,-6.698803408169919,-0.2644313912382204,-1.1461088490660685,9.781094115158703,-0.003274200060040313,0.0010856942144316301,0.0,4.403978473034346,61.194486106666915,-82.875
1772747261.2654402,4.964611926493102e-06,1.5360806998638024,-6.698803408169919,-0.2623400294065051,-1.150891595157663,9.784073233123369,-3.423483349084482e-06,0.0021816588789105138,0.0,4.403978473034346,61.194486106666915,-82.875
1772747261.31306,4.964611926493102e-06,1.5360806998638024,-6.698803408169919,-0.2623400294065051,-1.150891595157663,9.784073233123369,-3.423483349084482e-06,0.0021816588789105138,0.0,4.403978473034346,61.194486106666915,-82.875
1772747261.3581612,4.964611926493102e-06,1.5360806998638024,-6.698803408169919,-0.2676489650070922,-1.1473947424372517,9.786055802849926,1.711741674542241e-06,-0.0010908294394552569,0.0,5.46480988012362,62.258652083257495,-80.5
1772747261.3977199,4.964611926493102e-06,1.5360806998638024,-6.698803408169919,-0.2711820023445865,-1.145067626014222,9.787375180856195,-3.423483349084482e-06,0.0021816588789105138,0.0,5.46480988012362,62.258652083257495,-80.5
1772747261.4242585,4.964611926493102e-06,1.5360806998638024,-6.698803408169919,-0.26684298404850354,-1.1435084576703107,9.78825321218095,-0.0010942529228043414,0.0021799471372359715,0.001090830782496456,6.153485940549918,61.50973183797385,-81.5625
1772747261.4672785,4.964611926493102e-06,1.5360806998638024,-6.698803408169919,-0.2639501666624812,-1.1458159561432755,9.78883753221932,-0.0010874059561061724,-0.002183370620585056,0.0,6.153485940549918,61.50973183797385,-81.5625
1772747261.5559921,4.964611926493102e-06,1.5360806998638024,-6.698803408169919,-0.2687204933645327,-1.1440169613717794,9.789226390677573,1.711741674542241e-06,-0.0010908294394552569,0.002181661564992912,5.464123351108645,62.696151544603346,-81.5625
1772747261.6716228,4.964611926493102e-06,1.5360806998638024,-6.698803408169919,-0.2719003416766966,-1.139474642858651,9.786140059930387,-0.0010942529228043414,0.0021799471372359715,0.0,5.464123351108645,62.696151544603346,-81.5625
1772747261.7730942,4.964611926493102e-06,1.5360806998638024,-6.698803408169919,-0.2698535324209573,-1.1344313571324265,9.776029057971801,0.0010908294394552569,1.711741674542241e-06,0.001090830782496456,5.092164155592805,60.75806547663031,-82.0625
1772747261.8252635,4.964611926493102e-06,1.5360806998638024,-6.698803408169919,-0.2698535324209573,-1.1344313571324265,9.776029057971801,0.0010908294394552569,1.711741674542241e-06,0.001090830782496456,5.092164155592805,60.75806547663031,-82.0625
1772747261.8624437,4.964611926493102e-06,1.5360806998638024,-6.698803408169919,-0.269304009743096,-1.1364353887243737,9.784047605853202,1.711741674542241e-06,-0.0010908294394552569,0.001090830782496456,5.46480988012362,62.258652083257495,-81.25
1772747261.9238605,4.964611926493102e-06,1.5360806998638024,-6.698803408169919,-0.2722834161283359,-1.1377742985423045,9.782693636480586,1.711741674542241e-06,-0.0010908294394552569,0.0,5.46480988012362,62.258652083257495,-81.25
1772747261.9640207,4.964611926493102e-06,1.5360806998638024,-6.698803408169919,-0.2709210702067769,-1.1386600788895453,9.785137696695259,1.711741674542241e-06,-0.0010908294394552569,-0.003272492347489368,4.778978011330792,61.19507456010832,-81.25
1772747261.9819229,4.964611926493102e-06,1.5360806998638024,-6.698803408169919,-0.26666408744560477,-1.1425894142246156,9.783419079758861,-0.0010908294394552569,-1.711741674542241e-06,0.0,4.778978011330792,61.19507456010832,-81.25
1772747262.0016944,4.964611926493102e-06,1.5360806998638024,-6.698803408169919,-0.263831112971658,-1.1452043429965533,9.782275359385899,0.0010925411811297991,-0.0010891176977807146,0.0,4.778978011330792,61.19507456010832,-81.25
1772747262.0237029,4.964611926493102e-06,1.5360806998638024,-6.698803408169919,-0.2619458001056449,-1.1469445488836094,9.781514226253886,-0.0010891176977807146,-0.0010925411811297991,0.0,5.465986787006435,61.5086530066646,-81.25
1772747262.0658274,4.964611926493102e-06,1.5360806998638024,-6.698803408169919,-0.26403625304242395,-1.1481078856420615,9.777662588949626,-0.0010925411811297991,0.0010891176977807146,0.002181661564992912,5.465986787006435,61.5086530066646,-81.25
1772747262.0990586,4.964611926493102e-06,1.5360806998638024,-6.698803408169919,-0.26542742611996106,-1.1488820732594882,9.778444479056569,0.0010874059561061724,0.002183370620585056,0.0,5.465986787006435,61.5086530066646,-81.25
1772747262.1297283,4.964611926493102e-06,1.5360806998638024,-6.698803408169919,-0.2697088422114056,-1.1427123204730605,9.775619706481134,0.0021799471372359715,0.0010942529228043414,-0.001090830782496456,4.4028996417250985,61.8819852602104,-81.5625
1772747262.1685953,4.964611926493102e-06,1.5360806998638024,-6.698803408169919,-0.27255807679371047,-1.1386064189143474,9.77373985188696,0.0010908294394552569,1.711741674542241e-06,-0.001090830782496456,4.4028996417250985,61.8819852602104,-81.5625
1772747262.2004325,4.964611926493102e-06,1.5360806998638024,-6.698803408169919,-0.271103853811423,-1.139213845701746,9.76914371794657,0.0010925411811297991,-0.0010891176977807146,0.001090830782496456,5.090398795268582,61.88306409151964,-80.875
1772747262.2197542,4.964611926493102e-06,1.5360806998638024,-6.698803408169919,-0.271103853811423,-1.139213845701746,9.76914371794657,0.0010925411811297991,-0.0010891176977807146,0.001090830782496456,5.090398795268582,61.88306409151964,-80.875
1772747262.2658472,4.964611926493102e-06,1.5360806998638024,-6.698803408169919,-0.27013608466144573,-1.139618081443358,9.76608504215142,0.002176523653886887,0.0032759118017148554,-0.001090830782496456,5.090398795268582,61.88306409151964,-80.875
1772747262.3205867,4.964611926493102e-06,1.5360806998638024,-6.698803408169919,-0.2694867959228362,-1.143232203402578,9.767394639284715,0.0010874059561061724,0.002183370620585056,0.002181661564992912,4.777899180021544,61.8825737136518,-81.5625
1772747262.3397646,4.964611926493102e-06,1.5360806998638024,-6.698803408169919,-0.2690651998803009,-1.1389471460164788,9.774956384962403,-0.0010908294394552569,-1.711741674542241e-06,0.0,4.777899180021544,61.8825737136518,-81.5625
1772747262.3629203,4.964611926493102e-06,1.5360806998638024,-6.698803408169919,-0.2690651998803009,-1.1389471460164788,9.774956384962403,-0.0010908294394552569,-1.711741674542241e-06,0.0,4.777899180021544,61.8825737136518,-81.5625
1772747262.4150004,4.964611926493102e-06,1.5360806998638024,-6.698803408169919,-0.2687846324235301,-1.1360954881932572,9.77329841882603,0.001311644115471206,-0.14071528594805358,-0.001090830782496456,5.09098724870999,61.5080645532232,-81.25
1772747262.4667516,4.964611926493102e-06,1.5360806998638024,-6.698803408169919,-0.26859791791519305,-1.1341977417670086,9.77888528429761,0.0,0.0,-0.001090830782496456,5.09098724870999,61.5080645532232,-81.25
1772747262.4872644,4.964611926493102e-06,1.5360806998638024,-6.698803408169919,-0.2718135199044289,-1.1362851694883322,9.78260328085957,0.0010925411811297991,-0.0010891176977807146,0.0,5.09147762657783,61.19556493797616,-82.0625
1772747262.515332,4.964611926493102e-06,1.5360806998638024,-6.698803408169919,-0.2706031103388621,-1.1410141877275743,9.785077566038812,0.0010891176977807146,0.0010925411811297991,0.0,5.09147762657783,61.19556493797616,-82.0625
1772747262.5553753,4.964611926493102e-06,1.5360806998638024,-6.698803408169919,-0.2731427038829243,-1.1441665457191843,9.780033951771381,1.711741674542241e-06,-0.0010908294394552569,0.001090830782496456,4.778978011330792,61.19507456010832,-81.5625
1772747262.6008713,4.964611926493102e-06,1.5360806998638024,-6.698803408169919,-0.2748432733773579,-1.1395741895708824,9.776677482817268,3.423483349084482e-06,-0.0021816588789105138,-0.001090830782496456,4.778978011330792,61.19507456010832,-81.5625
1772747262.6369214,4.964611926493102e-06,1.5360806998638024,-6.698803408169919,-0.2748432733773579,-1.1395741895708824,9.776677482817268,3.423483349084482e-06,-0.0021816588789105138,-0.001090830782496456,4.778978011330792,61.19507456010832,-81.5625
1772747262.6794941,4.964611926493102e-06,1.5360806998638024,-6.698803408169919,-0.27597498337929754,-1.136518027854167,9.774443790222522,0.0010908294394552569,1.711741674542241e-06,0.0,5.09098724870999,61.5080645532232,-81.25
1772747262.7211838,4.964611926493102e-06,1.5360806998638024,-6.698803408169919,-0.2767281237435593,-1.1344841863712563,9.772957292752698,0.0010908294394552569,1.711741674542241e-06,-0.001090830782496456,5.09098724870999,61.5080645532232,-81.25
1772747262.761824,4.964611926493102e-06,1.5360806998638024,-6.698803408169919,-0.2738789734740707,-1.1364705459926736,9.771968045291796,-3.423483349084482e-06,0.0021816588789105138,0.001090830782496456,4.778487633462952,61.50757417535536,-81.25
1772747262.8202455,4.964611926493102e-06,1.5360806998638024,-6.698803408169919,-0.27198289579681995,-1.1377924461316362,9.774654823864504,-1.711741674542241e-06,0.0010908294394552569,0.0,4.778487633462952,61.50757417535536,-81.25
1772747262.8505106,4.964611926493102e-06,1.5360806998638024,-6.698803408169919,-0.27072107728318506,-1.1386721559075237,9.776442844991356,0.0,0.0,0.0,6.15289748710851,61.884731376270295,-80.875
1772747262.900755,4.964611926493102e-06,1.5360806998638024,-6.698803408169919,-0.2765715663353697,-1.1392680912963535,9.777632753077773,3.423483349084482e-06,-0.0021816588789105138,0.0,6.15289748710851,61.884731376270295,-80.875
1772747262.9455514,4.964611926493102e-06,1.5360806998638024,-6.698803408169919,-0.2763745662915911,-1.1343468670716874,9.77338035843412,0.0010908294394552569,1.711741674542241e-06,-0.001090830782496456,5.465398333565028,61.88365254496105,-81.25
1772747262.9799895,4.964611926493102e-06,1.5360806998638024,-6.698803408169919,-0.2763745662915911,-1.1343468670716874,9.77338035843412,0.0010908294394552569,1.711741674542241e-06,-0.001090830782496456,5.465398333565028,61.88365254496105,-81.25
1772747263.0145087,4.964611926493102e-06,1.5360806998638024,-6.698803408169919,-0.2736489341192709,-1.1330340539439816,9.772249590776829,-1.711741674542241e-06,0.0010908294394552569,0.0,6.15289748710851,61.884731376270295,-80.0625
1772747263.0480745,4.964611926493102e-06,1.5360806998638024,-6.698803408169919,-0.27182980717590866,-1.135505499061363,9.771497077532404,-0.0021799471372359715,-0.0010942529228043414,0.001090830782496456,6.15289748710851,61.884731376270295,-80.0625
1772747263.107737,4.964611926493102e-06,1.5360806998638024,-6.698803408169919,-0.26981355197634976,-1.1382447603792867,9.770663018783868,-0.0010874059561061724,-0.002183370620585056,0.0,5.465398333565028,61.88365254496105,-80.5
1772747263.1449003,4.964611926493102e-06,1.5360806998638024,-6.698803408169919,-0.26927740320382043,-1.1389731659866538,9.773786343301579,0.0010925411811297991,-0.0010891176977807146,0.002181661564992912,5.465398333565028,61.88365254496105,-80.5
1772747263.1914022,4.964611926493102e-06,1.5360806998638024,-6.698803408169919,-0.2689206021848764,-1.1394579117815329,9.772519769170975,0.0,0.0,0.002181661564992912,6.15289748710851,61.884731376270295,-81.25
1772747263.2227209,4.964611926493102e-06,1.5360806998638024,-6.698803408169919,-0.2689206021848764,-1.1394579117815329,9.772519769170975,0.0,0.0,0.002181661564992912,6.15289748710851,61.884731376270295,-81.25
1772747263.2905357,4.964611926493102e-06,1.5360806998638024,-6.698803408169919,-0.27202826268128383,-1.1397857538730491,9.775021989942937,1.711741674542241e-06,-0.0010908294394552569,-0.002181661564992912,6.15289748710851,61.884731376270295,-81.25
1772747263.3558903,4.964611926493102e-06,1.5360806998638024,-6.698803408169919,-0.2740963760268006,-1.1400039291227169,9.780032301622361,-0.0010908294394552569,-1.711741674542241e-06,-0.1407171709420428,6.153485940549918,61.50973183797385,-81.25
1772747263.4027262,4.964611926493102e-06,1.5360806998638024,-6.698803408169919,-0.2754726823559022,-1.1401491223141935,9.783366608076168,0.0,0.0,0.0,6.153485940549918,61.50973183797385,-81.25
1772747263.4459038,4.964611926493102e-06,1.5360806998638024,-6.698803408169919,-0.2754726823559022,-1.1401491223141935,9.783366608076168,0.0,0.0,0.0,6.153485940549918,61.50973183797385,-81.25
1772747263.504168,4.964611926493102e-06,1.5360806998638024,-6.698803408169919,-0.27638859884357025,-1.140245746761207,9.785585551774533,0.0,0.0,0.001090830782496456,5.46480988012362,62.258652083257495,-82.0625
1772747263.5369036,4.964611926493102e-06,1.5360806998638024,-6.698803408169919,-0.27365302344586967,-1.1403048000713392,9.78371712231125,-0.0010925411811297991,0.0010891176977807146,0.0,5.46480988012362,62.258652083257495,-82.0625
1772747263.602065,4.964611926493102e-06,1.5360806998638024,-6.698803408169919,-0.27365302344586967,-1.1403048000713392,9.78371712231125,-0.0010925411811297991,0.0010891176977807146,0.0,5.46480988012362,62.258652083257495,-82.0625
1772747263.6901476,4.964611926493102e-06,1.5360806998638024,-6.698803408169919,-0.2761922488999828,-1.1403789950974752,9.779420087489216,-0.0010925411811297991,0.0010891176977807146,-0.001090830782496456,5.09098724870999,61.5080645532232,-82.5
1772747263.7216463,4.964611926493102e-06,1.5360806998638024,-6.698803408169919,-0.2761922488999828,-1.1403789950974752,9.779420087489216,-0.0010925411811297991,0.0010891176977807146,-0.001090830782496456,5.09098724870999,61.5080645532232,-82.5
1772747263.7831964,4.964611926493102e-06,1.5360806998638024,-6.698803408169919,-0.2768674623405709,-1.1403987245306337,9.7762689629948,-0.0010908294394552569,-1.711741674542241e-06,0.001090830782496456,5.465986787006435,61.5086530066646,-81.25
1772747263.8485413,4.964611926493102e-06,1.5360806998638024,-6.698803408169919,-0.27731680934265396,-1.1404118542480086,9.774171924844135,1.711741674542241e-06,-0.0010908294394552569,0.001090830782496456,5.465986787006435,61.5086530066646,-81.25
1772747263.8841956,4.964611926493102e-06,1.5360806998638024,-6.698803408169919,-0.2776158447530054,-1.140420591928253,9.772776369380317,1.711741674542241e-06,-0.0010908294394552569,-0.002181661564992912,4.402311188283691,62.25698479850684,-82.0625
1772747263.9246643,4.964611926493102e-06,1.5360806998638024,-6.698803408169919,-0.2744644927093741,-1.143766265165646,9.775192754515842,0.0010874059561061724,0.002183370620585056,0.0,4.402311188283691,62.25698479850684,-82.0625
1772747263.9374518,4.964611926493102e-06,1.5360806998638024,-6.698803408169919,-0.2744644927093741,-1.143766265165646,9.775192754515842,0.0010874059561061724,0.002183370620585056,0.0,4.402311188283691,62.25698479850684,-82.0625
1772747263.9533825,4.964611926493102e-06,1.5360806998638024,-6.698803408169919,-0.27236730312724644,-1.145992773331512,9.776800831830743,-0.0010925411811297991,0.0010891176977807146,-0.001090830782496456,5.090398795268582,61.88306409151964,-80.5
1772747264.0030694,4.964611926493102e-06,1.5360806998638024,-6.698803408169919,-0.27432725283624826,-1.1407895236465873,9.781216101027729,-1.711741674542241e-06,0.0010908294394552569,-0.002181661564992912,5.090398795268582,61.88306409151964,-80.5
1772747264.0216863,4.964611926493102e-06,1.5360806998638024,-6.698803408169919,-0.27563157747351624,-1.1373268191053774,9.784154413356534,0.0010908294394552569,1.711741674542241e-06,0.001090830782496456,5.465398333565028,61.88365254496105,-83.25
1772747264.0375452,4.964611926493102e-06,1.5360806998638024,-6.698803408169919,-0.27563157747351624,-1.1373268191053774,9.784154413356534,0.0010908294394552569,1.711741674542241e-06,0.001090830782496456,5.465398333565028,61.88365254496105,-83.25
1772747264.0896392,4.964611926493102e-06,1.5360806998638024,-6.698803408169919,-0.2715007557193708,-1.1368252464562691,9.78406602187564,0.0021799471372359715,0.0010942529228043414,0.0,5.465986787006435,61.5086530066646,-81.25
1772747264.1094959,4.964611926493102e-06,1.5360806998638024,-6.698803408169919,-0.2715007557193708,-1.1368252464562691,9.78406602187564,0.0021799471372359715,0.0010942529228043414,0.0,5.465986787006435,61.5086530066646,-81.25
1772747264.1260297,4.964611926493102e-06,1.5360806998638024,-6.698803408169919,-0.27040021844750023,-1.1380284953278952,9.782705892137798,-1.711741674542241e-06,0.0010908294394552569,0.001090830782496456,5.465986787006435,61.5086530066646,-81.25
1772747264.147316,4.964611926493102e-06,1.5360806998638024,-6.698803408169919,-0.26632271559809106,-1.138823994830802,9.781800740990908,-0.0021816588789105138,-3.423483349084482e-06,-0.001090830782496456,5.465986787006435,61.5086530066646,-81.25
1772747264.2036278,4.964611926493102e-06,1.5360806998638024,-6.698803408169919,-0.2669542905892867,-1.1393586400436644,9.781198373013854,-1.711741674542241e-06,0.0010908294394552569,0.0,4.778978011330792,61.19507456010832,-80.5
1772747264.2315428,4.964611926493102e-06,1.5360806998638024,-6.698803408169919,-0.26737459669077246,-1.139714440460446,9.780797503854016,-0.0010908294394552569,-1.711741674542241e-06,0.002181661564992912,4.778978011330792,61.19507456010832,-80.5
1772747264.2485795,4.964611926493102e-06,1.5360806998638024,-6.698803408169919,-0.26737459669077246,-1.139714440460446,9.780797503854016,-0.0010908294394552569,-1.711741674542241e-06,0.002181661564992912,4.778978011330792,61.19507456010832,-80.5
1772747264.3124647,4.964611926493102e-06,1.5360806998638024,-6.698803408169919,-0.267649056526195,-1.143296329252049,9.777185618198827,-5.135225023626723e-06,0.003272488318365771,-0.003272492347489368,5.903486248352288,61.50933953567958,-81.6875
1772747264.3368392,4.964611926493102e-06,1.5360806998638024,-6.698803408169919,-0.26783170648075144,-1.1456800362305415,9.774781948642705,-0.0010908294394552569,-1.711741674542241e-06,-0.001090830782496456,5.903486248352288,61.50933953567958,-81.6875
1772747264.3610015,4.964611926493102e-06,1.5360806998638024,-6.698803408169919,-0.26783170648075144,-1.1456800362305415,9.774781948642705,-0.0010908294394552569,-1.711741674542241e-06,-0.001090830782496456,5.903486248352288,61.50933953567958,-81.6875
1772747264.38803,4.964611926493102e-06,1.5360806998638024,-6.698803408169919,-0.26461339957637836,-1.1439160098282009,9.776527445111173,0.0,0.0,-0.002181661564992912,5.465398333565028,61.88365254496105,-82.0625
1772747264.4127111,4.964611926493102e-06,1.5360806998638024,-6.698803408169919,-0.265816759871148,-1.1427473191428987,9.777689053512464,-1.711741674542241e-06,0.0010908294394552569,-0.001090830782496456,5.465398333565028,61.88365254496105,-82.0625
1772747264.4440446,4.964611926493102e-06,1.5360806998638024,-6.698803408169919,-0.2666175827049019,-1.1419695685469606,9.778462090927508,0.0010891176977807146,0.0010925411811297991,0.0,5.903486248352288,61.50933953567958,-80.875
1772747264.4691715,4.964611926493102e-06,1.5360806998638024,-6.698803408169919,-0.2666175827049019,-1.1419695685469606,9.778462090927508,0.0010891176977807146,0.0010925411811297991,0.0,5.903486248352288,61.50933953567958,-80.875
1772747264.497922,4.964611926493102e-06,1.5360806998638024,-6.698803408169919,-0.26715577053497747,-1.138106876624621,9.775631426984507,-0.0021816588789105138,-3.423483349084482e-06,0.0,5.903486248352288,61.50933953567958,-80.875
1772747264.5238042,4.964611926493102e-06,1.5360806998638024,-6.698803408169919,-0.2675139285239407,-1.1355362982994002,9.773747651751028,0.0010959646644788836,-0.0032707765766912286,-0.001090830782496456,5.903486248352288,61.50933953567958,-80.875
1772747264.5405147,4.964611926493102e-06,1.5360806998638024,-6.698803408169919,-0.2677470294847194,-1.1371707147279932,9.772494020376296,0.0021799471372359715,0.0010942529228043414,-0.001090830782496456,5.09147762657783,61.19556493797616,-81.25
1772747264.5650985,4.964611926493102e-06,1.5360806998638024,-6.698803408169919,-0.2679021555702092,-1.138258400603594,9.771659742700392,0.0010942529228043414,-0.0021799471372359715,0.0,5.09147762657783,61.19556493797616,-81.25
1772747264.5938017,4.964611926493102e-06,1.5360806998638024,-6.698803408169919,-0.2679021555702092,-1.138258400603594,9.771659742700392,0.0010942529228043414,-0.0021799471372359715,0.0,5.09147762657783,61.19556493797616,-81.25
1772747264.6246722,4.964611926493102e-06,1.5360806998638024,-6.698803408169919,-0.2646550334784552,-1.1423221018123557,9.777794763641209,0.0,0.0,-0.001090830782496456,5.903486248352288,61.50933953567958,-81.25
1772747264.6465003,4.964611926493102e-06,1.5360806998638024,-6.698803408169919,-0.26249935917911277,-1.1416813419834835,9.781877551544648,-0.0010891176977807146,-0.0010925411811297991,-0.001090830782496456,5.903486248352288,61.50933953567958,-81.25
1772747264.6662498,4.964611926493102e-06,1.5360806998638024,-6.698803408169919,-0.2610647820133602,-1.1412549234751252,9.784594601286658,-1.711741674542241e-06,0.0010908294394552569,-0.001090830782496456,5.903486248352288,61.50933953567958,-81.25
1772747264.707237,4.964611926493102e-06,1.5360806998638024,-6.698803408169919,-0.2601153361148183,-1.1376260391324338,9.783057655831211,0.0010891176977807146,0.0010925411811297991,-0.001090830782496456,5.465398333565028,61.88365254496105,-80.875
1772747264.727996,4.964611926493102e-06,1.5360806998638024,-6.698803408169919,-0.26282859806413045,-1.135216306319656,9.778689724092098,0.0021799471372359715,0.0010942529228043414,-0.001090830782496456,5.465398333565028,61.88365254496105,-80.875
1772747264.754597,4.964611926493102e-06,1.5360806998638024,-6.698803408169919,-0.2646342435822758,-1.133612656051232,9.769092690898074,-0.0010925411811297991,0.0010891176977807146,0.001090830782496456,5.465398333565028,61.88365254496105,-80.875
1772747264.781139,4.964611926493102e-06,1.5360806998638024,-6.698803408169919,-0.2646342435822758,-1.133612656051232,9.769092690898074,-0.0010925411811297991,0.0010891176977807146,0.001090830782496456,5.465398333565028,61.88365254496105,-80.875
1772747264.8098614,4.964611926493102e-06,1.5360806998638024,-6.698803408169919,-0.26583063132422985,-1.1358905523003293,9.769396195927975,-3.423483349084482e-06,0.0021816588789105138,-0.001090830782496456,5.09098724870999,61.5080645532232,-82.0625
1772747264.828062,4.964611926493102e-06,1.5360806998638024,-6.698803408169919,-0.2666268140019736,-1.137406466808335,9.77294328684232,3.423483349084482e-06,-0.0021816588789105138,-0.001090830782496456,5.09098724870999,61.5080645532232,-82.0625
1772747264.8466306,4.964611926493102e-06,1.5360806998638024,-6.698803408169919,-0.2666268140019736,-1.137406466808335,9.77294328684232,3.423483349084482e-06,-0.0021816588789105138,-0.001090830782496456,5.09098724870999,61.5080645532232,-82.0625
1772747264.8793037,4.964611926493102e-06,1.5360806998638024,-6.698803408169919,-0.26715666468006877,-1.1384152909795382,9.775303836222214,0.0010908294394552569,1.711741674542241e-06,0.001090830782496456,5.0898103418271745,62.258063629816085,-81.25
1772747264.922018,-0.0008126432008226945,1.550043356787934,-6.6988254249237755,-0.26750927438752126,-1.1390866521961696,9.786910090587428,-0.006572364503524218,0.017443000581236857,0.004363323129985824,5.0898103418271745,62.258063629816085,-81.25
1772747264.9876025,-0.02176425110766388,1.5488173362156565,-6.699107653111421,-0.2409935698586122,-1.1328012269687533,9.774563252973206,-0.005464417647323538,0.006536417928358831,-0.016362461737446838,5.902309341469473,62.25933861227247,-82.875
1772747265.0430455,0.013972667980368942,1.536897987099942,-6.698616703816074,-0.2233476646944507,-1.1286183466927078,9.766346570464155,0.006565517536826049,-0.01307968282341583,0.016362461737446838,5.902309341469473,62.25933861227247,-82.875
1772747265.0785983,-0.06266388336756337,1.532431866160572,-6.685673351181961,-0.21156251848546154,-1.152595547305123,9.760878460040738,-0.004383858657915535,0.013083106306764914,-0.07526732399225546,5.090398795268582,61.88306409151964,-81.25
1772747265.108006,-0.9215659144116641,1.4822434421373332,-6.689734652531983,-0.2639315719302389,-1.1686465917096158,9.723788376563556,-0.003272488318365771,-5.135225023626723e-06,0.01090830782496456,5.090398795268582,61.88306409151964,-81.25
1772747265.1418371,-0.9215659144116641,1.4822434421373332,-6.689734652531983,-0.2639315719302389,-1.1686465917096158,9.723788376563556,-0.003272488318365771,-5.135225023626723e-06,0.01090830782496456,5.090398795268582,61.88306409151964,-81.25
1772747265.176924,-0.02765109899632054,1.5344838913726182,-6.678224470676559,-0.25522795400299697,-1.2227465417732477,9.739246680820704,-0.0021919293289577673,0.006541553153382457,-0.003272492347489368,5.090398795268582,61.88306409151964,-80.875
1772747265.207795,-0.02765109899632054,1.5344838913726182,-6.678224470676559,-0.25522795400299697,-1.2227465417732477,9.739246680820704,-0.0021919293289577673,0.006541553153382457,-0.003272492347489368,5.090398795268582,61.88306409151964,-80.875
1772747265.2276688,-0.020667107269417374,1.5348913137591536,-6.6781313362885735,-0.2896820681634241,-1.1919102925887062,9.749534009623263,0.0065535353451042526,-0.005443876747229031,0.009817477042468103,5.090398795268582,61.88306409151964,-80.875
1772747265.2439625,-0.020667107269417374,1.5348913137591536,-6.6781313362885735,-0.2757832177029303,-1.1914020177726994,9.756380112024374,-0.0021816588789105138,-3.423483349084482e-06,-0.001090830782496456,3.9654001803792456,61.88129873119542,-80.875
1772747265.2788146,-0.020667107269417374,1.5348913137591536,-6.6781313362885735,-0.27656901074816276,-1.1910795141004171,9.7542458932817,0.0010874059561061724,0.002183370620585056,-0.002181661564992912,3.9654001803792456,61.88129873119542,-80.875
1772747265.3095057,-0.020667107269417374,1.5348913137591536,-6.6781313362885735,-0.26705137529553363,-1.1941942515579331,9.746135371134597,0.0032707765766912286,0.0010959646644788836,0.00545415391248228,3.9654001803792456,61.88129873119542,-80.875
1772747265.330633,-0.020667107269417374,1.5348913137591536,-6.6781313362885735,-0.26705137529553363,-1.1941942515579331,9.746135371134597,0.0032707765766912286,0.0010959646644788836,0.00545415391248228,3.9654001803792456,61.88129873119542,-80.875
1772747265.3473053,-0.03463508852237642,1.5340764576528352,-6.678317555363331,-0.27075281798712164,-1.196282822081981,9.747428132660808,-0.001097676406153426,0.004361606016146486,-0.013089969389957472,5.46480988012362,62.258652083257495,-81.6875
1772747265.4034998,-0.04860306076642345,1.533261556249901,-6.678503575625109,-0.23978075840265653,-1.1875849278686204,9.751633562722727,0.004351335566099232,0.007642653042884967,-0.015271630954950384,5.46480988012362,62.258652083257495,-81.6875
1772747265.4292245,-0.03463508852237642,1.5340764576528352,-6.678317555363331,-0.2526202746176316,-1.1818490682313683,9.754432229451202,0.0054592824222999105,-0.0032639296099930596,0.00545415391248228,5.903486248352288,61.50933953567958,-81.5625
1772747265.4578435,-0.03463508852237642,1.5340764576528352,-6.678317555363331,-0.2526202746176316,-1.1818490682313683,9.754432229451202,0.0054592824222999105,-0.0032639296099930596,0.00545415391248228,5.903486248352288,61.50933953567958,-81.5625
1772747265.4876587,-0.04901066989880108,1.5402430337272663,-6.6785174950604365,-0.2511032605655977,-1.1947417081204899,9.756294710895848,0.0010805589894080034,0.006546688378406084,-0.015271630954950384,5.903486248352288,61.50933953567958,-81.5625
1772747265.5070975,-0.04202667366592449,1.5406504910871264,-6.678424085505894,-0.2567839198376987,-1.203332114306455,9.760879283199298,0.0032844705100875666,-0.007630670851163172,0.01090830782496456,4.777899180021544,61.8825737136518,-81.5625
1772747265.5407598,-0.04202667366592449,1.5406504910871264,-6.678424085505894,-0.26056433512616,-1.20904893366209,9.763930264854215,-0.005454147197276284,-8.558708372711205e-06,0.007635815477475192,4.777899180021544,61.8825737136518,-81.5625
1772747265.5561867,-0.04202667366592449,1.5406504910871264,-6.678424085505894,-0.26308015927062517,-1.2128534130822086,9.755925323941906,0.0,0.0,-0.003272492347489368,4.777899180021544,61.8825737136518,-81.5625
1772747265.591407,-0.04202667366592449,1.5406504910871264,-6.678424085505894,-0.26308015927062517,-1.2128534130822086,9.755925323941906,0.0,0.0,-0.003272492347489368,4.777899180021544,61.8825737136518,-81.5625
1772747265.6141243,-0.06338628931822873,1.5464095486639797,-6.678718982742085,-0.27809809823038767,-1.2388220014789388,9.750598125185814,-1.8829158419964652e-05,0.011999123834007825,-0.013089969389957472,5.466477164874275,61.19615339141757,-80.5
1772747265.634889,-0.06338628931822873,1.5464095486639797,-6.678718982742085,-0.271403575162735,-1.2326618079473726,9.757088269044301,0.0021850823622595983,-0.0021782353955614293,0.00545415391248228,5.466477164874275,61.19615339141757,-80.5
1772747265.6487784,-0.06338628931822873,1.5464095486639797,-6.678718982742085,-0.271403575162735,-1.2326618079473726,9.757088269044301,0.0021850823622595983,-0.0021782353955614293,0.00545415391248228,5.466477164874275,61.19615339141757,-80.5
1772747265.681444,-0.06338628931822873,1.5464095486639797,-6.678718982742085,-0.25021240854002513,-1.2352262372436102,9.761407387282468,-0.0054592824222999105,0.0032639296099930596,0.002181661564992912,5.466477164874275,61.19615339141757,-80.5
1772747265.7059555,-0.0288738315866588,1.555428297539309,-6.678262559596776,-0.23617816321331705,-1.1934464376394847,9.784352382466173,0.0043564707911228585,0.0043701647245191965,0.019634954084936207,4.403978473034346,61.194486106666915,-80.5
1772747265.7240007,-0.0288738315866588,1.555428297539309,-6.678262559596776,-0.23617816321331705,-1.1934464376394847,9.784352382466173,0.0043564707911228585,0.0043701647245191965,0.019634954084936207,4.403978473034346,61.194486106666915,-80.5
1772747265.7573571,0.0056387937573654425,1.5644467563097109,-6.67780070075736,-0.2301836373099715,-1.1656476968938705,9.799622020448536,0.0043496238244246895,0.008733482482340224,0.006544984694978736,4.403978473034346,61.194486106666915,-80.5
1772747265.79022,0.10382298010549731,1.5631673964068111,-6.6764603254553885,-0.226194347284537,-1.1471479454599451,9.813128905660086,6.846966698168964e-06,-0.0043633177578210275,0.026179938779914945,5.902309341469473,62.25933861227247,-81.6875
1772747265.8342195,0.10382298010549731,1.5631673964068111,-6.6764603254553885,-0.21677581563847448,-1.1816575754194591,9.822117586886579,-0.016381270750248818,0.011973447708889692,0.039269908169872414,5.902309341469473,62.25933861227247,-81.6875
1772747265.8654828,0.10382298010549731,1.5631673964068111,-6.6764603254553885,-0.21677581563847448,-1.1816575754194591,9.822117586886579,-0.016381270750248818,0.011973447708889692,0.039269908169872414,5.902309341469473,62.25933861227247,-81.6875
1772747265.8980234,0.5570213308526647,1.5898920801809744,-6.726439961100653,-0.183747027329623,-1.204581355219774,9.83144456553998,-0.016359018108479766,-0.0022073350040286476,0.13744467859455345,5.465398333565028,61.88365254496105,-81.25
1772747265.9230037,1.3688233826376945,1.3911132010350014,-6.612646884475171,-0.18869032295578658,-1.11618053278903,9.911244023205668,0.044963650852101446,-0.15264594011507973,0.37306412761378793,5.465398333565028,61.88365254496105,-81.25
1772747265.9427643,1.9542448315637706,1.2200931409344218,-6.510547126485477,-0.23557141322877814,-0.990516860527401,9.964349670863832,0.06794296223099261,-0.19842482999703515,0.4788747135159442,5.465398333565028,61.88365254496105,-81.25
1772747265.9804616,4.385579774970401,0.793269417583493,-5.824030980933773,-0.2667702551093616,-0.9068890903924842,9.999690886151386,0.19112966051408226,-0.1491440784123253,0.619591884457987,5.904663155235103,60.75934045908669,-81.6875
1772747266.0488522,5.139542815499191,0.8833833152352742,-5.564189143145077,-0.20390504614733687,-0.8511045140513622,10.08676719257708,0.2279320005959124,0.033082637193637035,0.5606870222031783,5.904663155235103,60.75934045908669,-81.6875
1772747266.0659487,6.836622652788952,1.2594680903698954,-5.063432928562758,-0.16205845347352796,-0.8206707168284665,10.1447155017973,0.19945746021955596,0.1050328749141459,0.7930339788749234,5.092164155592805,60.75806547663031,-81.5625
1772747266.1131861,8.754985576076033,1.7609232864333806,-4.7996734203352895,-0.14422958873256733,-0.8104684350507468,10.146483225477816,0.05208935790927466,0.1724332150343086,0.9293878266869805,5.092164155592805,60.75806547663031,-81.5625
1772747266.1433585,8.754985576076033,1.7609232864333806,-4.7996734203352895,-0.14422958873256733,-0.8104684350507468,10.146483225477816,0.05208935790927466,0.1724332150343086,0.9293878266869805,5.092164155592805,60.75806547663031,-81.5625
1772747266.1646771,10.802444233402658,2.442530571130733,-4.676816453213292,-0.13236467840892682,-0.8036789304946295,10.147659625840433,-0.0036970002536522465,0.2705205657598801,0.928296995904484,8.098535374246284,56.700278105950076,-82.875
1772747266.2012544,12.829992769960018,3.281073903592466,-4.528305258694317,-0.08441140894267515,-0.7455758794758163,10.20865451787225,0.03878372518481925,0.30985718350557645,0.9621127501618741,8.098535374246284,56.700278105950076,-82.875
1772747266.222539,12.829992769960018,3.281073903592466,-4.528305258694317,-0.08441140894267515,-0.7455758794758163,10.20865451787225,0.03878372518481925,0.30985718350557645,0.9621127501618741,8.098535374246284,56.700278105950076,-82.875
1772747266.2580612,17.637316324932534,5.0783679448549135,-4.353287033034817,0.0354008166891851,-0.5585043626802874,10.189286168872886,-0.08120922489693355,0.3107597213608321,1.1617347833587257,11.413875487498355,54.89297834291636,-83.5625
1772747266.2911723,19.477599020774733,5.7673659288592996,-4.32266837764516,-0.0262083297389916,-0.6326755440863711,10.09586182555398,-0.0932374483394086,0.3292849926731515,1.1322823522313212,11.413875487498355,54.89297834291636,-83.5625
1772747266.3517065,21.9281789371918,6.75153534015159,-3.9491405531324437,-0.22742199767012142,-0.9064098058539025,9.99020251649839,0.06936460780640637,0.285906864604448,0.8333947178272924,15.483922304874579,50.08685918039389,-84.875
1772747266.3645523,22.819038025139672,7.010218815253728,-3.8940647505957364,-0.3880883066846306,-1.08861889268805,9.852985192467326,0.019277175900215295,0.22801416419629045,0.8333947178272924,15.483922304874579,50.08685918039389,-84.875
1772747266.3968084,24.29878499860058,7.210898493447962,-4.137026221193587,-0.5017211524710473,-1.1965070725721438,9.714837032240126,-0.11690019463921397,0.11544476422308121,0.9610219193793778,15.483922304874579,50.08685918039389,-84.875
1772747266.4146292,25.909201380620416,7.733319096426646,-5.09331804788918,-0.5907439690549505,-1.2549460174598852,9.62290097482499,-0.1769043725176258,0.12080476562825768,1.0057459814617324,14.672011758673687,49.71058465964106,-84.0625
1772747266.4471135,27.23151861907894,7.790524401784629,-4.248813200723962,-0.6499876590415177,-1.2938364824768889,9.330905847803232,-0.16603373643991318,0.14482013071301875,1.1835513990086548,14.672011758673687,49.71058465964106,-84.0625
1772747266.4754949,27.23151861907894,7.790524401784629,-4.248813200723962,-0.6499876590415177,-1.2938364824768889,9.330905847803232,-0.16603373643991318,0.14482013071301875,1.1835513990086548,14.672011758673687,49.71058465964106,-84.0625
1772747266.4920018,31.17817428262324,8.13724584359697,-4.139960719290639,-0.48245268436658645,-1.041748273482146,9.136586352569543,-0.13855930319426124,0.015054220959706733,1.4409874636778184,15.926619771619531,46.77504978779026,-82.5
1772747266.5242982,33.69804750907003,8.119189362781768,-4.307330315863268,-0.37096003020871204,-0.8739863864059522,8.923641106499531,-0.31179235158335294,-0.11829913758008682,1.4889840181076623,15.926619771619531,46.77504978779026,-82.5
1772747266.5456035,33.69804750907003,8.119189362781768,-4.307330315863268,-0.37096003020871204,-0.8739863864059522,8.923641106499531,-0.31179235158335294,-0.11829913758008682,1.4889840181076623,15.926619771619531,46.77504978779026,-82.5
1772747266.5760615,37.160786989556726,7.844420145425589,-4.800655496306005,-0.5875615598060451,-0.9066390295567063,8.604637503506272,-0.4293982337852501,-0.24829270897611297,1.5587971881874356,15.802796832403532,46.02485456005023,-84.0625
1772747266.6117072,39.981833013394294,7.6563692792257685,-5.245718637519841,-0.9755118728176105,-1.1762901505290178,8.392344169217994,-0.2910186634668158,-0.14880983879301773,1.1071932442339028,15.802796832403532,46.02485456005023,-84.0625
1772747266.6283383,41.14045565883235,7.631628716258362,-5.339731362426209,-1.2336884724378552,-1.355739959335702,8.50194870477003,-0.24524148532653497,-0.1247396979746713,1.0461067204141012,17.298087358058055,49.027204680187424,-85.6875
1772747266.649966,42.2960907462551,7.604232789575044,-5.38377324726596,-1.1450036579373823,-1.207143759368767,8.932816251500197,-0.1754301129430731,-0.12353931706804533,1.036289243371633,17.298087358058055,49.027204680187424,-85.6875
1772747266.7178593,45.60127132405072,7.400733113205375,-5.401742551944491,-1.0424985059073875,-1.1081864088792248,9.219553790743259,-0.16002669668175973,-0.20750921952265652,1.210822168571066,16.921420535010952,50.08911491858595,-86.0625
1772747266.7451327,48.55560447690451,7.054539543544683,-5.263646381571694,-0.9742404788490856,-1.0690922582647593,9.544178888334102,-0.10530549183316996,-0.3219607235817314,1.325359400733194,16.921420535010952,50.08911491858595,-86.0625
1772747266.7580223,48.55560447690451,7.054539543544683,-5.263646381571694,-1.1462107733450813,-1.0668324875619304,9.800354604968696,-0.2862702038322228,-0.3942396157037523,1.1355548445788106,18.42073215918176,50.52896819369743,-84.875
1772747266.7988453,50.6469231046082,6.616963179474104,-5.38420539301466,-1.2606550832981052,-1.0653286354024905,10.114676486133492,-0.38986305400530685,-0.41730964939139426,0.8530296719122286,18.42073215918176,50.52896819369743,-84.875
1772747266.8289194,52.7581259452011,5.898209369355059,-5.977269128572165,-1.2606550832981052,-1.0653286354024905,10.114676486133492,-0.38986305400530685,-0.41730964939139426,0.8530296719122286,18.42073215918176,50.52896819369743,-84.875
1772747266.8523104,54.31102212964879,5.402067398111567,-6.1834649204756715,-1.2800074051156543,-1.0274424190530433,10.323854186843187,-0.20990358436198212,-0.39957394098381066,0.8890270877346116,17.291810521349706,53.027199755349514,-86.875
1772747266.8728516,56.09069760238509,4.982530541754162,-6.085505462389238,-1.0588861032902892,-0.9015088950264036,9.984708635850795,0.013642845834340228,-0.35231736804395347,1.0559241974565694,17.291810521349706,53.027199755349514,-86.875
1772747266.8896875,57.31022145789973,4.751217087398196,-5.929083178091506,-0.9117585929122447,-0.8009760036123831,9.759011060169398,0.057207553745568816,-0.3086157207987615,1.066832505281534,17.291810521349706,53.027199755349514,-86.875
1772747266.9050374,57.31022145789973,4.751217087398196,-5.929083178091506,-0.9117585929122447,-0.8009760036123831,9.759011060169398,0.057207553745568816,-0.3086157207987615,1.066832505281534,17.291810521349706,53.027199755349514,-86.875
1772747266.9170315,58.52741477720552,4.56951144367256,-5.757342260103976,-0.8372363854991909,-0.7508347696061907,9.806173435492388,0.0680439549897906,-0.2627837669248953,1.0733774899765127,16.478134614824594,53.77592384948602,-88.0625
1772747266.9288812,59.735132195440414,4.459183687373549,-5.580325030323377,-0.787632190573427,-0.7241565536669261,9.850939916260863,0.06900982728700429,-0.183151506102987,1.0679233360640303,16.478134614824594,53.77592384948602,-88.0625
1772747266.947839,-119.96503254789181,-3.1406761695768015,-2.556416801148251,-0.75127079619672,-0.709742357383341,9.880731509137926,0.10157380675325503,-0.08056218654395658,1.074468320759009,16.478134614824594,53.77592384948602,-88.0625
1772747266.9630888,-119.96503254789181,-3.1406761695768015,-2.556416801148251,-0.75127079619672,-0.709742357383341,9.880731509137926,0.10157380675325503,-0.08056218654395658,1.074468320759009,16.478134614824594,53.77592384948602,-88.0625
1772747267.0094516,63.32142897574917,4.678099135310178,-4.874210877269413,-0.7169743814961785,-0.7402754142992031,9.837000358964644,0.15049851606966005,0.023143638579647224,1.0755591515415055,15.79063546128111,53.77484501817678,-87.6875
1772747267.0390496,65.63631557218218,5.063530666318625,-4.33492430653178,-0.6840784336027381,-0.7839948281816497,9.807897767033282,0.15801792371197798,0.09733202265432649,1.0450158896316049,15.79063546128111,53.77484501817678,-87.6875
1772747267.0560985,66.73650029447163,5.238045446121411,-4.055964694177693,-0.6621865477514693,-0.813089609742565,9.872158109883198,0.15687403028061192,0.1311460235357649,0.9926560120717749,15.79063546128111,53.77484501817678,-87.6875
1772747267.0720038,66.73650029447163,5.238045446121411,-4.055964694177693,-0.6621865477514693,-0.813089609742565,9.872158109883198,0.15687403028061192,0.1311460235357649,0.9926560120717749,15.79063546128111,53.77484501817678,-87.6875
1772747267.088755,68.34948569508713,5.466292850360464,-3.6369563993164347,-0.5908611460362537,-0.7621153664370178,9.914922650214754,0.16449443068172784,0.140975470682584,0.9752027195518317,19.479307828078973,53.03063240042439,-90.875
1772747267.102994,69.38652196794565,5.59986180690879,-3.364315926159658,-0.5367046727741485,-0.728182078576805,9.97683309116738,0.16886973063127067,0.13334651157309538,0.9304786574694769,19.479307828078973,53.03063240042439,-90.875
1772747267.1184742,70.37686882635995,5.718465827256095,-3.1153474318602727,-0.5006588956056734,-0.7089449621542819,10.018033798036413,0.1775826722135164,0.1420868410221338,0.8868454261696187,19.479307828078973,53.03063240042439,-90.875
1772747267.1355038,70.37686882635995,5.718465827256095,-3.1153474318602727,-0.5006588956056734,-0.7089449621542819,10.018033798036413,0.1775826722135164,0.1420868410221338,0.8868454261696187,19.479307828078973,53.03063240042439,-90.875
1772747267.166728,72.92824895058888,6.025055730642344,-2.6980399853438386,-0.5430351717674625,-0.7802375854700835,9.980118674293148,0.06854765703487788,0.11137244254993237,0.7308566242726255,20.980875190441843,52.0329874453995,-90.0625
1772747267.211854,72.92824895058888,6.025055730642344,-2.6980399853438386,-0.5430351717674625,-0.7802375854700835,9.980118674293148,0.06854765703487788,0.11137244254993237,0.7308566242726255,20.980875190441843,52.0329874453995,-90.0625
1772747267.2445316,74.76601460063998,6.115316678070829,-2.6175505452418073,-0.5649997216877352,-0.7972035271540348,9.896451183733427,-0.03601620066044344,0.011942636358747932,0.6490443155853913,22.482638703951846,50.910342644275794,-91.25
1772747267.2885091,76.21299173086048,5.913513589754861,-2.660962774023796,-0.5931285441544595,-0.7248874788230221,9.820700733149126,-0.08056732176898021,-0.09830131843488925,0.6446809924554054,22.482638703951846,50.910342644275794,-91.25
1772747267.3186827,77.55513148222617,5.563827859445503,-2.743582639549101,-0.6252283916416735,-0.676782953201882,9.77028965447325,-0.0880850176696236,-0.1735805319490238,0.5846852994181004,22.91905933398845,51.59852832683425,-92.0625
1772747267.3457088,78.44263337394386,5.277296882551508,-2.788157128020097,-0.6800100623735473,-0.6648930660963859,9.740086756450422,-0.06731988826145924,-0.19863708596467838,0.5214171140333059,22.91905933398845,51.59852832683425,-92.0625
1772747267.369156,79.50920734869798,4.928996443037222,-2.7486145289837864,-0.7265019750606088,-0.6569962265863885,9.719987065204707,-0.01390519230331704,-0.17564579239406541,0.4657847441259867,22.91964778742986,51.223528788537806,-92.5
1772747267.4105523,80.28286801625453,4.715036155662786,-2.700040279997525,-0.7608079279138986,-0.6383657869308074,9.663124493013795,-0.01395996803690239,-0.14073925033149717,0.4461497900410505,22.91964778742986,51.223528788537806,-92.5
1772747267.4444585,80.28286801625453,4.715036155662786,-2.700040279997525,-0.7608079279138986,-0.6383657869308074,9.663124493013795,-0.01395996803690239,-0.14073925033149717,0.4461497900410505,22.91964778742986,51.223528788537806,-92.5
1772747267.4739957,81.47680662805936,4.508221951007315,-2.6676166026935135,-0.780308796266342,-0.6159268655093175,9.625283086417294,-0.021671090746769046,-0.09275473718718769,0.42542400517361784,23.16729366586186,52.72391924401786,-94.5
1772747267.498059,82.12925924691392,4.449077329512507,-2.641731780346915,-0.7865961911383479,-0.6009835156025132,9.61013538816549,0.0011661460731351154,-0.04799478359435676,0.3741549583962844,23.16729366586186,52.72391924401786,-94.5
1772747267.5148494,82.67974908129375,4.396336728605663,-2.556519788474192,-0.7640457673805235,-0.5742713517838443,9.626815657848345,0.02952599975729725,-0.04685944887136341,0.32834006553143325,23.92013693408822,50.912598382467856,-95.6875
1772747267.554033,83.13675507509043,4.357646520814601,-2.4416783220284466,-0.7222935991041095,-0.5464173889506672,9.768375547576921,0.053496859558520224,-0.029368519523239364,0.26725354171163174,23.92013693408822,50.912598382467856,-95.6875
1772747267.5856817,83.5798795133895,4.314952314783939,-2.2929032660656397,-0.6644020292193605,-0.5278336452144343,9.862582072863706,0.08293556049041582,-0.020595666982384672,0.2585268954516601,23.92013693408822,50.912598382467856,-95.6875
1772747267.6154137,83.97829663135784,4.285975180486198,-2.1321515580986556,-0.6258653377922897,-0.5221565865295634,9.921930351378903,0.0949244138743764,-0.014031861187233166,0.2399827721492203,23.16964747962749,51.22392109083208,-96.5
1772747267.6326582,84.1952212359307,4.2793668505879,-2.0391917772395294,-0.6169083938146279,-0.541820566413133,9.961425967767054,0.10253796730879415,0.00016090371740697066,0.20943951023931956,23.16964747962749,51.22392109083208,-96.5
1772747267.647827,84.1952212359307,4.2793668505879,-2.0391917772395294,-0.6169083938146279,-0.541820566413133,9.961425967767054,0.10253796730879415,0.00016090371740697066,0.20943951023931956,23.16964747962749,51.22392109083208,-96.5
1772747267.663351,84.46278393563675,4.320456418195206,-1.8922337830623883,-0.6276364413371185,-0.5783487243860511,9.950913630497913,0.12102729204594817,0.03509654538844241,0.16471544815696484,23.16964747962749,51.22392109083208,-96.5
1772747267.6830704,84.59841145958117,4.340160391762387,-1.8334823583366802,-0.6347758371231926,-0.6026578054707672,9.933882452353844,0.07739582620941243,0.03393724628200546,0.12435470920459599,24.294646094516825,51.2256864511563,-98.5
1772747267.7046652,84.73440821570296,4.339982252179383,-1.773743393153782,-0.6127661645562595,-0.6187932339425013,9.929238616964328,0.07195366120385795,0.026292881497445957,0.1265363707695889,24.294646094516825,51.2256864511563,-98.5
1772747267.7187157,84.73440821570296,4.339982252179383,-1.773743393153782,-0.6127661645562595,-0.6187932339425013,9.929238616964328,0.07195366120385795,0.026292881497445957,0.1265363707695889,24.294646094516825,51.2256864511563,-98.5
1772747267.7336483,84.95083084975809,4.306280846750553,-1.704364628932937,-0.5513819523239228,-0.5692457562278904,9.926148196387647,0.05778999590768502,0.015362334461124335,0.13308135546456762,24.294646094516825,51.2256864511563,-98.5
1772747267.751549,85.10579710018833,4.264846324161216,-1.6817956679807944,-0.5038412296123107,-0.5362619649304297,9.924091556016124,0.04252694246368414,0.00988422288040446,0.14180800172453928,26.921408222916167,50.104807010356815,-99.25
1772747267.7719328,85.2910756518998,4.23375854370526,-1.6486219820150874,-0.5038412296123107,-0.5362619649304297,9.924091556016124,0.04579600729870083,0.012071016984338599,0.16253378659197193,26.921408222916167,50.104807010356815,-99.25
1772747267.802246,85.57890539230917,4.198040222636038,-1.6463340931893098,-0.478867378990027,-0.5310476565789701,9.902652214579138,0.031628918519178824,0.003322128826927496,0.17780541754692233,26.921408222916167,50.104807010356815,-99.25
1772747267.826719,85.76775015389764,4.180886987674952,-1.6386262695733955,-0.4755964956522956,-0.5476692348713895,9.84155300844349,0.038153354255815855,0.016422352550437832,0.16580627893946132,27.607142016135427,51.2308844565554,-99.25
1772747267.843846,85.76775015389764,4.180886987674952,-1.6386262695733955,-0.4755964956522956,-0.5476692348713895,9.84155300844349,0.038153354255815855,0.016422352550437832,0.16580627893946132,27.607142016135427,51.2308844565554,-99.25
1772747267.8691418,86.01107126761973,4.17496407340603,-1.6195542015229822,-0.4734197593291963,-0.5587307095497992,9.790856834161112,0.04359038403634672,0.027339205653363112,0.1461713248545251,27.607142016135427,51.2308844565554,-99.25
1772747267.8944597,86.2484536562612,4.1976687852737555,-1.6214292625427515,-0.4519477627091004,-0.5359545340045,9.75711909648956,0.023948607159453926,0.031671712061042384,0.13962634015954636,27.607142016135427,51.2308844565554,-99.25
1772747267.9076133,86.46590453248727,4.241057283973664,-1.7484386892392605,-0.437658388816345,-0.5207972436056549,9.791533907968796,-0.11130397288295067,0.0249144794566676,0.21598449493429828,28.672484899608826,49.420053972873234,-99.6875
1772747267.9200344,86.72420904097247,4.24160626240521,-1.857626669121346,-0.4213170270761927,-0.6010176427004984,9.821126803984233,-0.11888157974220304,-0.01218570367653293,0.2301652951067522,28.672484899608826,49.420053972873234,-99.6875
1772747267.9422054,87.15076768984386,4.16669604323432,-2.141688335461509,-0.41044203338309276,-0.6544034221775424,9.834130322293559,-0.13847542785220868,-0.038396421573600854,0.19744037163185854,28.672484899608826,49.420053972873234,-99.6875
1772747268.010639,87.38516369476166,4.07031325583227,-2.4227950177724047,-0.40329933180178523,-0.6297191254631328,9.816023124811043,-0.13193216295715166,-0.03729532168409835,0.08944812416470939,30.4839038367324,50.11039731805019,-98.875
1772747268.0255852,87.4598300731768,4.033839332317177,-2.572716328867684,-0.39854594368862983,-0.6132920017413549,9.803972987157078,-0.13304182155502686,-0.02529790959176506,0.05672320068981571,30.4839038367324,50.11039731805019,-98.875
1772747268.0394895,87.4598300731768,4.033839332317177,-2.572716328867684,-0.39854594368862983,-0.6132920017413549,9.803972987157078,-0.13304182155502686,-0.02529790959176506,0.05672320068981571,30.4839038367324,50.11039731805019,-98.875
1772747268.0682642,87.50656435123314,3.9849347000715682,-2.8224554087186036,-0.4421458839012916,-0.6459198215815802,9.785918420035264,-0.14721746904292157,-0.028592650551899884,0.025089107997418487,30.4839038367324,50.11039731805019,-98.875
1772747268.0842798,87.5021373575067,3.958753862924515,-3.1091389314212687,-0.471155907889584,-0.6709783787974071,9.773903307298426,-0.14942993927197384,-0.008961144125054343,0.001090830782496456,29.481551254176246,51.608826262058884,-98.5
1772747268.1049287,87.44019395810292,3.8512479323260553,-3.415690090537604,-0.4870956504818469,-0.7010297498772696,9.765907383989664,-0.15703322225634433,-0.02969888566642602,-0.03599741582238305,29.481551254176246,51.608826262058884,-98.5
1772747268.1433175,87.44019395810292,3.8512479323260553,-3.415690090537604,-0.4870956504818469,-0.7010297498772696,9.765907383989664,-0.15703322225634433,-0.02969888566642602,-0.03599741582238305,29.481551254176246,51.608826262058884,-98.5
1772747268.1750886,87.3443757618736,3.6158642329279034,-3.8439745985688147,-0.424111004165111,-0.7209131196753382,9.787347080006553,-0.18423891205909315,-0.07119319790758934,-0.04145156973486533,30.16679466952767,53.047403323504504,-100.0625
1772747268.226091,87.46356984554856,3.3472338363194827,-4.304107090252901,-0.3722283421994287,-0.6906431339699706,9.801614958208697,-0.16245142287845524,-0.05261486260335913,0.07744898555724837,30.16679466952767,53.047403323504504,-100.0625
1772747268.2508476,87.72090240325659,3.3758326700054933,-4.599217700914772,-0.3377010102285762,-0.6704987966209444,9.811110071769582,-0.13747532072150415,0.0194192504592023,0.12435470920459599,29.91493154143225,54.234509559148975,-98.875
1772747268.2689767,87.9689618466578,3.496852881169016,-4.747434236252997,-0.36478458836956684,-0.7307640697952978,9.790668070118427,-0.08846673606304652,0.06967443304949852,0.1538071403320003,29.91493154143225,54.234509559148975,-98.875
1772747268.294918,87.9689618466578,3.496852881169016,-4.747434236252997,-0.36478458836956684,-0.7307640697952978,9.790668070118427,-0.08846673606304652,0.06967443304949852,0.1538071403320003,29.91493154143225,54.234509559148975,-98.875
1772747268.312416,87.9689618466578,3.496852881169016,-4.747434236252997,-0.3961573423542123,-0.790961578138293,9.767028811249745,-0.06890369930318267,0.11552008085676106,0.16907877128695067,29.913852710123,54.92200871269246,-99.6875
1772747268.3264341,88.40494120455153,3.794115394275836,-4.961404839971537,-0.4036183850592978,-0.8544171038918723,9.751297148540461,-0.06779746418865652,0.1057043276433383,0.16907877128695067,29.913852710123,54.92200871269246,-99.6875
1772747268.3440266,88.57557394710703,3.904678434497628,-5.0416927064043815,-0.40509679018572137,-0.9869587031534474,9.827800807131924,-0.08188923633449868,0.04895894414989589,0.13962634015954636,29.913852710123,54.92200871269246,-99.6875
1772747268.362606,88.57557394710703,3.904678434497628,-5.0416927064043815,-0.40509679018572137,-0.9869587031534474,9.827800807131924,-0.08188923633449868,0.04895894414989589,0.13962634015954636,29.913852710123,54.92200871269246,-99.6875
1772747268.4200819,88.69626761791339,3.6709426621768557,-5.1531670347568665,-0.4059074293428352,-1.1855522073052924,9.87871313732268,-0.09476693364031852,-0.08632444724265047,0.025089107997418487,31.288851017209964,54.92416637531095,-99.6875
1772747268.4450045,88.69324305181932,3.4215943221816394,-5.298519508429206,-0.34623496404831117,-1.3176194806437347,9.869108272141483,-0.032596502558067036,-0.08186356020938054,-0.002181661564992912,31.288851017209964,54.92416637531095,-99.6875
1772747268.4645696,88.69324305181932,3.4215943221816394,-5.298519508429206,-0.3735674846153588,-1.3152958544649236,9.835955447998217,-0.05112690909541007,-0.09061929533348981,-0.028361600344907856,30.912086118589297,56.04857653675889,-100.0625
1772747268.5095494,88.6599012287652,3.2207394959745534,-5.405747254405581,-0.3735674846153588,-1.3152958544649236,9.835955447998217,-0.05112690909541007,-0.09061929533348981,-0.028361600344907856,30.912086118589297,56.04857653675889,-100.0625
1772747268.5247173,88.6549403186983,2.9364771210753116,-5.545411492289751,-0.354960788251821,-1.3136917662196457,9.840653507530739,-0.07066598147183033,-0.15173655529312596,-0.003272492347489368,30.912086118589297,56.04857653675889,-100.0625
1772747268.5492258,88.68112969211505,2.783770833810539,-5.587336248879512,-0.342683223272094,-1.2457221116355301,9.937443141473812,-0.01741561271444418,-0.024025635534808326,-0.008726646259971648,30.912086118589297,56.04857653675889,-100.0625
1772747268.5887809,88.65269339466484,2.7525541976696077,-5.5975185740032325,-0.25423005879660554,-1.2003630854608445,10.001855561651873,0.0033118583768802423,-0.02508394188244728,0.022907446432425576,31.286497203444334,56.42416452849674,-98.875
1772747268.605706,88.69234638081463,2.7596328080700787,-5.581827536177706,-0.19536546592475745,-1.1701771602351134,10.024650637502575,0.012000835575682368,-0.0010720002810352923,0.019634954084936207,31.286497203444334,56.42416452849674,-98.875
1772747268.636448,88.69234638081463,2.7596328080700787,-5.581827536177706,-0.19536546592475745,-1.1701771602351134,10.024650637502575,0.012000835575682368,-0.0010720002810352923,0.019634954084936207,31.286497203444334,56.42416452849674,-98.875
1772747268.6568637,88.7323603205317,2.7618270623690844,-5.561123161065249,-0.25322085372388636,-1.1368605600608195,9.982953606819105,0.01527503563572268,-0.0021576944954669226,0.02399827721492203,30.163263948879223,55.297400553283175,-99.25
1772747268.68135,88.74224771605628,2.762309523497892,-5.560890458352242,-0.2916494794973252,-1.1615202410586427,9.94851447527097,0.002169676687188718,0.007639229559535883,0.002181661564992912,30.163263948879223,55.297400553283175,-99.25
1772747268.7017734,88.74216220381402,2.7470487812938686,-5.5953039605143,-0.3206156508823632,-1.147830264176922,9.882109165740841,-0.006555247086778795,0.006534706186684288,0.004363323129985824,30.163263948879223,55.297400553283175,-99.25
1772747268.7358332,88.73646055177332,2.7465369502790478,-5.625324659831498,-0.3398923143657702,-1.138719737489199,9.837917174044453,-0.01745327103128411,-2.7387866792675858e-05,-0.003272492347489368,30.913263025472112,55.298577460165994,-101.25
1772747268.7617924,88.71213139735714,2.714923878912974,-5.674699037429549,-0.3527207185795371,-1.1326567837497707,9.825233455763996,-0.0010754237643843768,-0.009819176696771854,-0.025089107997418487,30.913263025472112,55.298577460165994,-101.25
1772747268.7918935,88.7050275792291,2.6449131373890955,-5.7036674356642605,-0.29771133245417664,-1.1218320061664393,9.81679258293477,0.0032964527018093624,-0.01526647692734997,-0.008726646259971648,30.913263025472112,55.298577460165994,-101.25
1772747268.8097084,88.7050275792291,2.6449131373890955,-5.7036674356642605,-0.29771133245417664,-1.1218320061664393,9.81679258293477,0.0032964527018093624,-0.01526647692734997,-0.008726646259971648,30.913263025472112,55.298577460165994,-101.25
1772747268.8484056,88.73134405173757,2.5862374549828724,-5.76190211516217,-0.257742345354101,-1.1246583111917898,9.79444971782105,3.423483349084482e-06,-0.0021816588789105138,0.019634954084936207,30.912086118589297,56.04857653675889,-98.5
1772747268.868961,88.7809074042751,2.5684883625802586,-5.800107643206923,-0.2344517942507011,-1.149960187915757,9.769545455552068,0.0010874059561061724,0.002183370620585056,0.031634092692397225,30.912086118589297,56.04857653675889,-98.5
1772747268.8992395,88.7809074042751,2.5684883625802586,-5.800107643206923,-0.2344517942507011,-1.149960187915757,9.769545455552068,0.0010874059561061724,0.002183370620585056,0.031634092692397225,30.912086118589297,56.04857653675889,-98.5
1772747268.9280288,88.79546234951192,2.5539847486694964,-5.844334944682655,-0.23900184147665032,-1.1802102296701567,9.752971947210899,0.011997412092333282,0.0011096585978752215,0.003272492347489368,30.912086118589297,56.04857653675889,-99.25
1772747268.9442117,88.79546234951192,2.5539847486694964,-5.844334944682655,-0.24205084379811972,-1.1869608641874574,9.751977797670028,0.013120764623604843,-0.019614389010100118,-0.014180800172453928,30.912086118589297,56.04857653675889,-99.25
1772747268.9672642,88.79546234951192,2.5539847486694964,-5.844334944682655,-0.24205084379811972,-1.1869608641874574,9.751977797670028,0.013120764623604843,-0.019614389010100118,-0.014180800172453928,30.912086118589297,56.04857653675889,-99.25
1772747269.0001876,88.76706533484483,2.438728872263403,-5.828563873067898,-0.244100917503428,-1.1780729056940478,9.774731984207191,0.013124188106953929,-0.02179604788901063,-0.011999138607461015,30.473998203802036,56.42288954604035,-100.0625
1772747269.0264497,88.72039143326941,2.3665611475726465,-5.868219477570474,-0.2421253602446902,-1.1688077118329099,9.789874641166756,0.004365029499495569,-0.0010839824727570879,-0.015271630954950384,30.473998203802036,56.42288954604035,-100.0625
1772747269.0533993,88.72039143326941,2.3665611475726465,-5.868219477570474,-0.2421253602446902,-1.1688077118329099,9.789874641166756,0.004365029499495569,-0.0010839824727570879,-0.015271630954950384,30.473998203802036,56.42288954604035,-100.0625
1772747269.0706549,88.71518706227742,2.3662768551171407,-5.878457030054056,-0.25086171926374773,-1.1526222535909298,9.783226351682186,-0.0021850823622595983,0.0021782353955614293,-0.013089969389957472,29.473999435011514,56.42132033686327,-99.6875
1772747269.0904245,88.68109147399869,2.3442491387835336,-5.908280435857202,-0.2298990603491481,-1.1518443412607497,9.775456877589146,-0.005462705905648995,0.005445588488903573,-0.019634954084936207,29.473999435011514,56.42132033686327,-99.6875
1772747269.1064255,88.68109147399869,2.3442491387835336,-5.908280435857202,-0.2298990603491481,-1.1518443412607497,9.775456877589146,-0.005462705905648995,0.005445588488903573,-0.019634954084936207,29.473999435011514,56.42132033686327,-99.6875
1772747269.1343718,88.67668698300989,2.3189403591822035,-5.9428954407199575,-0.262753905352784,-1.168125675758649,9.77028637937094,0.0043633177578210275,6.846966698168964e-06,0.002181661564992912,29.91257772766662,55.73450771233476,-100.0625
1772747269.160259,88.67700961760553,2.308933221706941,-5.95264624916134,-0.23778693144703125,-1.1788872334727243,9.740084576906419,0.003286182251762109,-0.008721500290618429,-0.008726646259971648,29.91257772766662,55.73450771233476,-100.0625
1772747269.1886113,88.63712316568379,2.311739046087405,-5.958426112155586,-0.26798219873517354,-1.1995028487919628,9.693224721083965,-0.0010908294394552569,-1.711741674542241e-06,-0.020725784867432664,29.91257772766662,55.73450771233476,-100.0625
1772747269.2156792,88.63712316568379,2.311739046087405,-5.958426112155586,-0.26798219873517354,-1.1995028487919628,9.693224721083965,-0.0010908294394552569,-1.711741674542241e-06,-0.020725784867432664,29.91257772766662,55.73450771233476,-100.0625
1772747269.270137,88.58936327637332,2.9147897509182155,-6.599468628714666,-0.2469958843548103,-1.1332097011056632,9.668047827609325,-0.0021885058456086828,0.004359894274471943,0.0,30.474586657243446,56.04789000774391,-100.75
1772747269.3162394,88.63845739824347,2.2768386891813854,-5.982658388380735,-0.23733021808787713,-1.1590118975069101,9.678736186203158,0.0043564707911228585,0.0043701647245191965,-0.002181661564992912,29.912087349798778,56.047007327581795,-100.5
1772747269.3456638,88.6389529185953,2.2618237106044288,-5.997278946206446,-0.23758804033737227,-1.1761934693424996,9.709264951401801,0.003272488318365771,5.135225023626723e-06,-0.00545415391248228,29.912087349798778,56.047007327581795,-100.5
1772747269.402724,88.63911894209701,2.2568187732029887,-6.00215243414172,-0.24114671919305025,-1.1608720019380516,9.736271727027486,0.0032759118017148554,-0.002176523653886887,0.002181661564992912,29.912087349798778,56.047007327581795,-100.5
1772747269.4303846,88.63492983165071,2.2264855545448627,-6.041629589723335,-0.2502051953960287,-1.1506862348923756,9.754244434520928,0.002190217587283225,-0.0054507237139272,0.0,29.476353248777144,54.92132218367748,-100.5
1772747269.4439383,88.6352692192342,2.216475309814995,-6.051376186864633,-0.2562440084792804,-1.1372175055283793,9.766205070589514,0.0021799471372359715,0.0010942529228043414,-0.004363323129985824,29.476353248777144,54.92132218367748,-100.5
1772747269.4797401,88.63543955048958,2.211470230189805,-6.056249462476006,-0.26024702358825375,-1.1382895393585635,9.7741647402841,0.0010925411811297991,-0.0010891176977807146,-0.001090830782496456,29.476353248777144,54.92132218367748,-100.5
1772747269.5146244,88.63612512508683,2.1914501983308545,-6.075742412750407,-0.2595658778378806,-1.138997716717159,9.77946181155051,-1.711741674542241e-06,0.0010908294394552569,-0.001090830782496456,30.16257741986425,55.734900014629034,-100.5
1772747269.5635238,88.63628899764193,2.18130509345038,-6.095370450670146,-0.2557674753611177,-1.1394637516584554,9.772951618184184,0.003274200060040313,-0.0010856942144316301,-0.002181661564992912,30.16257741986425,55.734900014629034,-100.5
1772747269.5907214,88.63646274090671,2.176300245794046,-6.1002435595199245,-0.25324493012375743,-1.1364287851171506,9.768619157222519,0.0021799471372359715,0.0010942529228043414,-0.002181661564992912,30.16257741986425,55.734900014629034,-100.5
1772747269.6230638,88.63646274090671,2.176300245794046,-6.1002435595199245,-0.25324493012375743,-1.1364287851171506,9.768619157222519,0.0021799471372359715,0.0010942529228043414,-0.002181661564992912,30.16257741986425,55.734900014629034,-100.5
1772747269.6426725,88.63215348838993,2.156105593834039,-6.120090773050057,-0.25156620444697075,-1.13440904878671,9.76908106455661,0.0010925411811297991,-0.0010891176977807146,0.002181661564992912,30.16257741986425,55.734900014629034,-100.0625
1772747269.6737108,88.6326825040639,2.1410903039828897,-6.134709794121581,-0.25713399725924657,-1.1364205427695,9.769388458727606,0.0010908294394552569,1.711741674542241e-06,-0.004363323129985824,30.16257741986425,55.734900014629034,-100.0625
1772747269.7122054,88.6326825040639,2.1410903039828897,-6.134709794121581,-0.25713399725924657,-1.1364205427695,9.769388458727606,0.0010908294394552569,1.711741674542241e-06,-0.004363323129985824,30.16257741986425,55.734900014629034,-100.0625
1772747269.7326128,88.63303730558796,2.1310802591129168,-6.144455734538514,-0.2608393011794951,-1.1377591695451865,9.766247914407266,-0.0010874059561061724,-0.002183370620585056,0.0,30.161498588555,56.42239916817252,-100.0625
1772747269.7462242,88.63321534364904,2.1260752814069956,-6.149328682772212,-0.2632893920074951,-1.1486853334773235,9.764157917244258,0.0021782353955614293,0.0021850823622595983,0.001090830782496456,30.161498588555,56.42239916817252,-100.0625
1772747269.7720942,88.62816607902884,2.1255848858579904,-6.1590312928353805,-0.2682650076730075,-1.1559618227009019,9.762767047479075,5.135225023626723e-06,-0.003272488318365771,0.0,30.161498588555,56.42239916817252,-100.0625
1772747269.8159225,88.62816607902884,2.1255848858579904,-6.1590312928353805,-0.2682650076730075,-1.1559618227009019,9.762767047479075,5.135225023626723e-06,-0.003272488318365771,0.0,30.161498588555,56.42239916817252,-100.0625
1772747269.8472543,88.62870409792814,2.1105702604298187,-6.173648593232677,-0.271576224317137,-1.1608042449954825,9.768531662602017,0.0010908294394552569,1.711741674542241e-06,0.0,30.161498588555,56.42239916817252,-100.0625
1772747269.8759065,88.62888428713579,2.1055654456083994,-6.1785209977009785,-0.27379030036507085,-1.1573366077615526,9.762332614449408,0.0010925411811297991,-0.0010891176977807146,-0.002181661564992912,30.161498588555,56.42239916817252,-100.0625
1772747269.915701,88.62942740337324,2.090551183133604,-6.193138124647428,-0.2719186356533346,-1.1550236847384283,9.768242552273708,0.002176523653886887,0.0032759118017148554,-0.001090830782496456,30.912576496457138,55.736076921511845,-100.0625
1772747269.9440463,88.62979160463223,2.0805418272074636,-6.202882804277687,-0.26732795610675275,-1.153479211123593,9.77886577329209,0.003272488318365771,5.135225023626723e-06,-0.001090830782496456,30.912576496457138,55.736076921511845,-100.0625
1772747269.9701831,88.62496622787735,2.0753543418105513,-6.208110230615009,-0.2642729101497531,-1.1524513811858206,9.785935408210667,0.0010942529228043414,-0.0021799471372359715,-0.001090830782496456,30.163263948879223,55.297400553283175,-99.6875
1772747270.03135,88.62533307079197,2.0653443199210333,-6.217854799864893,-0.26558491878125545,-1.1517726210238355,9.780604836154026,0.0010891176977807146,0.0010925411811297991,-0.001090830782496456,30.163263948879223,55.297400553283175,-99.6875
1772747270.0611842,88.62551712937305,2.060339355252506,-6.222727063282048,-0.2664580458694236,-1.1513209137182823,9.777057399996723,0.0,0.0,0.0,30.47576356412626,55.29789093115102,-100.0625
1772747270.11501,88.62588652074379,2.0503295188341544,-6.232471547891434,-0.26368874542435516,-1.1543601659611342,9.781386844276135,3.423483349084482e-06,-0.0021816588789105138,0.001090830782496456,30.47576356412626,55.29789093115102,-100.0625
1772747270.1390011,88.62590237129923,2.0451888874501805,-6.247223983225145,-0.2618458069132751,-1.15638275437808,9.784268041081022,1.711741674542241e-06,-0.0010908294394552569,0.0,30.912086118589297,56.04857653675889,-99.6875
1772747270.170525,88.62644379320443,2.0353149976020655,-6.247088169815076,-0.26061935192112334,-1.1577287643757648,9.776150110247638,-0.0010805589894080034,-0.006546688378406084,-0.001090830782496456,30.912086118589297,56.04857653675889,-99.6875
1772747270.1886864,88.62644379320443,2.0353149976020655,-6.247088169815076,-0.26061935192112334,-1.1577287643757648,9.776150110247638,-0.0010805589894080034,-0.006546688378406084,-0.001090830782496456,30.912086118589297,56.04857653675889,-99.6875
1772747270.2039473,88.60687029316198,2.029227201087632,-6.252296527820184,-0.2631902608529485,-1.1318689074630073,9.770747717961251,-0.015288729569119018,0.010884330011108978,-0.031634092692397225,30.912086118589297,56.04857653675889,-99.6875
1772747270.2399302,88.60795399658201,2.009479471094413,-6.252021850971884,-0.2582109568505714,-1.1146489632011176,9.760462262828698,0.012043629117545923,-0.028342736267416718,0.02399827721492203,30.47576356412626,55.29789093115102,-101.25
1772747270.2578444,88.58765220685834,2.0182702665820393,-6.25249324692522,-0.28174213324958086,-1.0497095546735493,9.753617407334046,-0.004366741241170112,0.0021748119122123447,-0.02181661564992912,30.47576356412626,55.29789093115102,-101.25
1772747270.2802045,88.54905172271317,1.9962140635003804,-6.262755393416127,-0.31063532159809626,-1.1001771129251474,9.7490622324644,0.0022090467457031894,-0.017449847547935025,-0.02399827721492203,30.47576356412626,55.29789093115102,-101.25
1772747270.314202,88.54905172271317,1.9962140635003804,-6.262755393416127,-0.31063532159809626,-1.1001771129251474,9.7490622324644,0.0022090467457031894,-0.017449847547935025,-0.02399827721492203,30.47576356412626,55.29789093115102,-101.25
1772747270.3415165,88.559120563232,1.99174901790412,-6.267459631226932,-0.329910658305877,-1.103656740882946,9.725960144229372,0.0021885058456086828,-0.004359894274471943,0.009817477042468103,30.162087041996408,56.04739962987607,-101.25
1772747270.3581176,88.55392064717208,1.9965677080603248,-6.262944364283828,-0.3594637175092164,-1.1059986403188173,9.734001744527431,-0.004590979400535145,0.14507346848085098,0.001090830782496456,30.162087041996408,56.04739962987607,-101.25
1772747270.3818305,88.55356655198496,2.0014338581711923,-6.2679553700454695,-0.2620521826722215,-1.107373426933026,9.73600822798791,-0.006562094053476964,0.010898023944505316,0.001090830782496456,30.162087041996408,56.04739962987607,-101.25
1772747270.407827,88.57871525213035,1.9926950817238176,-6.277010081996236,-0.2707867662697028,-1.1284744595598952,9.740688632024288,0.001097676406153426,-0.004361606016146486,0.018544123302439753,30.474586657243446,56.04789000774391,-100.875
1772747270.4354181,88.5693796513612,1.9822777637558064,-6.277034190250539,-0.2765995340821346,-1.1425169610590975,9.757183835456237,-0.0065535353451042526,0.005443876747229031,-0.00545415391248228,30.474586657243446,56.04789000774391,-100.875
1772747270.4579785,88.55484308198369,1.9766777651159189,-6.272540862780387,-0.2871580813060093,-1.1518725873017757,9.768161209076704,0.0163846942335979,-0.014155106587800207,-0.007635815477475192,30.474586657243446,56.04789000774391,-100.875
1772747270.4848437,88.55106132001596,1.956577169181907,-6.272066594043135,-0.29418992571678665,-1.154753544468299,9.718599629571397,-0.0010668650560116655,-0.01527332389404814,-0.011999138607461015,29.91257772766662,55.73450771233476,-100.0625
1772747270.503851,88.55106132001596,1.956577169181907,-6.272066594043135,-0.29418992571678665,-1.154753544468299,9.718599629571397,-0.0010668650560116655,-0.01527332389404814,-0.011999138607461015,29.91257772766662,55.73450771233476,-100.0625
1772747270.5265741,88.49700331207809,1.9488055672903843,-6.268211741324967,-0.27878314654862474,-1.1666746169666415,9.685616952049735,-0.0021816588789105138,-3.423483349084482e-06,-0.017453292519943295,29.91257772766662,55.73450771233476,-100.0625
1772747270.5517972,88.44779650910043,1.9410779181655524,-6.273877594790861,-0.26854585465718156,-1.1645726347808245,9.723879359331466,-0.0032759118017148554,0.002176523653886887,-0.022907446432425576,29.47576479533574,55.29632172197393,-99.6875
1772747270.6017556,88.44351061103089,1.9256896655690836,-6.2882774144120965,-0.24169390080868983,-1.1430716485041892,9.75937789908032,-0.011993988608984199,-0.0032913174767857357,0.002181661564992912,29.47576479533574,55.29632172197393,-99.6875
1772747270.6263883,88.4431587545762,1.9305508514813203,-6.293292453018555,-0.24389487101121388,-1.1287944773987795,9.78300178073851,-0.004373588207868281,0.006538129670033373,-0.00545415391248228,30.163263948879223,55.297400553283175,-99.6875
1772747270.6454132,88.4431587545762,1.9305508514813203,-6.293292453018555,-0.24389487101121388,-1.1287944773987795,9.78300178073851,-0.004373588207868281,0.006538129670033373,-0.00545415391248228,30.163263948879223,55.297400553283175,-99.6875
1772747270.6703637,88.43911615447841,1.9052948048058371,-6.317963878850918,-0.23527177752829204,-1.1527285078624734,9.768617204720114,0.0010822707310825456,0.005455858938950827,0.0,30.163263948879223,55.297400553283175,-99.6875
1772747270.708385,88.43911615447841,1.9052948048058371,-6.317963878850918,-0.25963917344074855,-1.1687035803953287,9.759044430066114,-0.0032707765766912286,-0.0010959646644788836,-0.007635815477475192,29.476353248777144,54.92132218367748,-99.6875
1772747270.7323015,88.44958374769024,1.8908060981131527,-6.332400183437703,-0.24574943491976536,-1.1792875700927854,9.752673855468776,-0.0010925411811297991,0.0010891176977807146,0.011999138607461015,29.476353248777144,54.92132218367748,-99.6875
1772747270.7755702,88.44958374769024,1.8908060981131527,-6.332400183437703,-0.24574943491976536,-1.1792875700927854,9.752673855468776,-0.0010925411811297991,0.0010891176977807146,0.011999138607461015,29.476353248777144,54.92132218367748,-99.6875
1772747270.8152266,88.41512824003932,1.8839499455283941,-6.33808016607745,-0.2800448595467117,-1.1529482604575334,9.771850091189464,-0.002183370620585056,0.0010874059561061724,-0.020725784867432664,30.16041975724575,57.109898321715995,-98.875
1772747270.835222,88.35589824952397,1.8754807087262655,-6.353744267047211,-0.2894194118359411,-1.1788851460589023,9.74781543306848,-0.006536417928358831,-0.005464417647323538,-0.030543261909900768,30.16041975724575,57.109898321715995,-98.875
1772747270.8488731,88.35589824952397,1.8754807087262655,-6.353744267047211,-0.2894194118359411,-1.1788851460589023,9.74781543306848,-0.006536417928358831,-0.005464417647323538,-0.030543261909900768,30.16041975724575,57.109898321715995,-98.875
1772747270.863775,88.2411986989369,1.8785935076220237,-6.38558240441432,-0.3324280092405126,-1.2129291326164322,9.715095078037091,-0.006543264895057,-0.0011010998895025104,-0.06981317007977318,30.473998203802036,56.42288954604035,-98.875
1772747270.881236,88.13263564925582,1.8620989115585043,-6.416717217248701,-0.3242220718191577,-1.2555979299270525,9.693320047274018,-0.005462705905648995,0.005445588488903573,-0.09272061651219876,30.473998203802036,56.42288954604035,-98.875
1772747270.894898,88.13263564925582,1.8620989115585043,-6.416717217248701,-0.3242220718191577,-1.2555979299270525,9.693320047274018,-0.005462705905648995,0.005445588488903573,-0.09272061651219876,30.473998203802036,56.42288954604035,-98.875
1772747270.9127128,87.99974753311122,1.8447904057915432,-6.418837179409764,-0.26861599337971814,-1.2638441546630141,9.70224478949546,-0.0032844705100875666,0.007630670851163172,-0.07963064712224129,30.473998203802036,56.42288954604035,-98.875
1772747270.9290726,87.93115948632291,1.8310215589534464,-6.419682358097942,-0.23163701523881505,-1.2526063871645,9.718219440869884,0.0010891176977807146,0.0010925411811297991,-0.05890486225480862,30.474586657243446,56.04789000774391,-99.25
1772747270.9454558,87.88232840233204,1.818365487470574,-6.420219055525354,-0.19037061976422906,-1.2016151338741596,9.738885728032972,0.0021731001705378025,0.005457570680625369,-0.04036073895236887,30.474586657243446,56.04789000774391,-99.25
1772747270.9678533,87.88014508686626,1.7791224956505114,-6.389584935680155,-0.16301327815152414,-1.1007788726433372,9.752638911282453,0.0032707765766912286,0.0010959646644788836,-0.004363323129985824,30.474586657243446,56.04789000774391,-99.25
1772747271.001645,87.88014508686626,1.7791224956505114,-6.389584935680155,-0.16301327815152414,-1.1007788726433372,9.752638911282453,0.0032707765766912286,0.0010959646644788836,-0.004363323129985824,30.474586657243446,56.04789000774391,-99.25
1772747271.0324845,87.88014508686626,1.7791224956505114,-6.389584935680155,-0.1448072729097987,-1.0336734672090686,9.76179150110186,-0.0054507237139272,-0.002190217587283225,-0.00545415391248228,30.912576496457138,55.736076921511845,-99.25
1772747271.0591779,87.88062294250301,1.7638165827767354,-6.4139792364088795,-0.13258114701605503,-1.0592628288735675,9.747811777141631,-1.711741674542241e-06,0.0010908294394552569,0.007635815477475192,30.912576496457138,55.736076921511845,-99.25
1772747271.078123,87.89533961707431,1.764721428252323,-6.414045244772755,-0.19803191458184924,-1.0797528527579472,9.745198650424488,0.0021748119122123447,0.004366741241170112,0.01090830782496456,30.912576496457138,55.736076921511845,-99.25
1772747271.1070013,87.89533961707431,1.764721428252323,-6.414045244772755,-0.19803191458184924,-1.0797528527579472,9.745198650424488,0.0021748119122123447,0.004366741241170112,0.01090830782496456,30.912576496457138,55.736076921511845,-99.25
1772747271.129021,87.90521710443014,1.7652775267439058,-6.413903668748304,-0.21816766696241313,-1.0966970980932973,9.743459643784766,0.004365029499495569,-0.0010839824727570879,0.004363323129985824,30.913263025472112,55.298577460165994,-100.0625
1772747271.1467144,87.92552847357729,1.7565167590956334,-6.413425105393425,-0.23156778524058616,-1.10797330408435,9.742302354292008,0.005454147197276284,8.558708372711205e-06,0.022907446432425576,30.913263025472112,55.298577460165994,-100.0625
1772747271.1607318,87.95502004882428,1.757992237903648,-6.422879375411848,-0.23710356241686845,-1.138887997149435,9.74153219106235,0.007640941301210425,-0.003260506126643975,0.0272707695624114,30.913263025472112,55.298577460165994,-100.0625
1772747271.1834934,87.95502004882428,1.757992237903648,-6.422879375411848,-0.23710356241686845,-1.138887997149435,9.74153219106235,0.007640941301210425,-0.003260506126643975,0.0272707695624114,30.913263025472112,55.298577460165994,-100.0625
1772747271.2111444,88.02449229926226,1.7619338707139087,-6.411454605261453,-0.24077181274903287,-1.169496702810858,9.741019656036299,0.01308824153178854,0.0011113703395497637,0.032724923474893676,29.913264256681593,55.29700825098891,-98.875
1772747271.236564,88.09398141645582,1.7609770570934462,-6.405429940393984,-0.25659342272319163,-1.1898874512268471,9.75071390482381,0.005445588488903573,0.005462705905648996,0.04690572364734761,29.913264256681593,55.29700825098891,-98.875
1772747271.2732441,88.13307908475949,1.7732471361054045,-6.39516016381843,-0.2705516218906488,-1.1499407942775148,9.78727132446592,0.008740329449038393,-0.008712941582245717,0.022907446432425576,30.162087041996408,56.04739962987607,-98.875
1772747271.30154,88.13307908475949,1.7732471361054045,-6.39516016381843,-0.2798406475132903,-1.1233567403111306,9.811599878864607,-0.006551823603429711,0.004353047307773774,-0.009817477042468103,30.162087041996408,56.04739962987607,-98.875
1772747271.346886,88.15283427410488,1.7743554423458336,-6.394873090743683,-0.2927126054775152,-1.1056758477198216,9.787648919561342,0.004366741241170112,-0.0021748119122123447,0.013089969389957472,30.912086118589297,56.04857653675889,-100.0625
1772747271.390192,88.15283427410488,1.7743554423458336,-6.394873090743683,-0.27115178469448176,-1.1072425989440562,9.771709823694765,-0.0010925411811297991,0.0010891176977807146,-0.004363323129985824,30.912086118589297,56.04857653675889,-100.0625
1772747271.4055378,88.15303986786178,1.7693312882686756,-6.399724129998027,-0.25679805013353274,-1.1116303619708126,9.777828091983523,5.135225023626723e-06,-0.003272488318365771,0.006544984694978736,30.912086118589297,56.04857653675889,-100.0625
1772747271.424574,88.15303986786178,1.7693312882686756,-6.399724129998027,-0.25679805013353274,-1.1116303619708126,9.777828091983523,5.135225023626723e-06,-0.003272488318365771,0.006544984694978736,30.912086118589297,56.04857653675889,-100.0625
1772747271.4568295,88.15303986786178,1.7693312882686756,-6.399724129998027,-0.24723530176496328,-1.1212405844281665,9.781899731184156,0.0021816588789105138,3.423483349084482e-06,0.006544984694978736,30.162087041996408,56.04739962987607,-100.875
1772747271.578272,88.1531031494968,1.7641317770314588,-6.41445261700867,-0.2433090239893225,-1.1430451880646997,9.783067478647528,0.0010925411811297991,-0.0010891176977807146,0.002181661564992912,30.161498588555,56.42239916817252,-99.6875
1772747271.6583347,88.15331003201985,1.7591077280546812,-6.419303573751706,-0.24828332995466593,-1.1488527629845882,9.785386484481268,0.0010908294394552569,1.711741674542241e-06,0.002181661564992912,30.163263948879223,55.297400553283175,-100.875
1772747271.6848812,88.15331003201985,1.7591077280546812,-6.419303573751706,-0.25159892418795304,-1.149372531630125,9.780239533543991,-0.0010891176977807146,-0.0010925411811297991,0.002181661564992912,30.163263948879223,55.297400553283175,-100.875
1772747271.7346485,88.1535173388406,1.7540837137088898,-6.424154519082708,-0.25380541511259114,-1.1497184318575335,9.77681429519044,0.0,0.0,0.002181661564992912,29.912087349798778,56.047007327581795,-100.5
1772747271.7730892,88.1535173388406,1.7540837137088898,-6.424154519082708,-0.2552738101748191,-1.149948624594915,9.774534837328574,3.423483349084482e-06,-0.0021816588789105138,0.002181661564992912,29.912087349798778,56.047007327581795,-100.5
1772747271.8551493,88.15372506995149,1.7490597340672545,-6.429005453040137,-0.2529006539169086,-1.153441673699018,9.783053218706671,-0.0010925411811297991,0.0010891176977807146,0.001090830782496456,29.912087349798778,56.047007327581795,-100.875
1772747271.911099,88.15393322534486,1.7440357892029366,-6.433856375662444,-0.2513318432971406,-1.1490760436803111,9.788722106357241,1.711741674542241e-06,-0.0010908294394552569,0.001090830782496456,29.912087349798778,56.047007327581795,-100.875
1772747271.9517813,88.15358368544362,1.7488844286619665,-6.438882637108715,-0.2502825681744584,-1.1495158732589303,9.792494687763071,-1.711741674542241e-06,0.0010908294394552569,0.001090830782496456,29.91149889635737,56.422006865878245,-99.6875
1772747272.0030437,88.15358368544362,1.7488844286619665,-6.438882637108715,-0.2502825681744584,-1.1495158732589303,9.792494687763071,-1.711741674542241e-06,0.0010908294394552569,0.001090830782496456,29.91149889635737,56.422006865878245,-99.6875
1772747272.0486963,88.15379228091251,1.7438605203032838,-6.443733500112023,-0.24958953648147397,-1.1464634673414968,9.791660186838836,0.004371876466193738,-0.005447300230578115,0.009817477042468103,29.91149889635737,56.422006865878245,-99.6875
1772747272.0660577,88.15379228091251,1.7438605203032838,-6.443733500112023,-0.24958953648147397,-1.1464634673414968,9.791660186838836,0.004371876466193738,-0.005447300230578115,0.009817477042468103,29.91149889635737,56.422006865878245,-99.6875
1772747272.0850873,88.10911567826058,1.7412391000177263,-6.454523342593859,-0.24913358081145365,-1.1410870177122672,9.771034165551827,-0.0021850823622595983,0.0021782353955614293,-0.031634092692397225,30.4735078259342,56.735389161287394,-99.6875
1772747272.1438398,88.14412429999885,1.738277940634214,-6.448724792002375,-0.24883014740641363,-1.1375090505428924,9.757307778793077,0.007646076526234052,-0.006532994445009746,0.028361600344907856,30.4735078259342,56.735389161287394,-99.6875
1772747272.1675637,88.13909750905997,1.7380687212451686,-6.449074480908878,-0.2519785726337084,-1.131788094951389,9.764898580275513,-0.0021799471372359715,-0.0010942529228043414,-0.014180800172453928,29.91149889635737,56.422006865878245,-100.0625
1772747272.2675571,88.14897491812204,1.738627487157881,-6.448934077882192,-0.29086474874891693,-1.1313837114811753,9.793365955818501,-0.0032776235433893976,0.003267353093342144,-0.002181661564992912,29.91149889635737,56.422006865878245,-100.0625
1772747272.3247685,88.14897491812204,1.738627487157881,-6.448934077882192,-0.2799521302698806,-1.127711750230337,9.788894894289703,0.0010925411811297991,-0.0010891176977807146,0.004363323129985824,30.161498588555,56.42239916817252,-100.0625
1772747272.371638,88.10946547335269,1.7363922878397668,-6.44949510912991,-0.289410193337959,-1.1286394545251324,9.785919452787317,0.0010891176977807146,0.0010925411811297991,-0.018544123302439753,30.161498588555,56.42239916817252,-100.0625
1772747272.4284604,88.18827604020166,1.7458849824605291,-6.443518901952107,-0.29568868111630936,-1.139292154136541,9.783939329705339,0.003281047026738482,-0.005449011972252658,0.028361600344907856,30.91100728728005,56.736075690302364,-100.5
1772747272.49843,88.23752272984508,1.748507868200813,-6.452689016398176,-0.29986694459749763,-1.146381406729482,9.782621579913707,0.0021850823622595983,-0.0021782353955614293,0.039269908169872414,30.91100728728005,56.736075690302364,-100.5
1772747272.54285,88.18757540014974,1.7555855583921496,-6.453568941881591,-0.3328164907289165,-1.1110051766924156,9.771709297025648,0.006563805795151506,-0.011988853383960572,-0.014180800172453928,30.4735078259342,56.735389161287394,-100.875
1772747272.570069,88.1579429326183,1.7539080647143919,-6.453994793810229,-0.2811516786555332,-1.0873472088213616,9.764447294661831,0.0043564707911228585,0.0043701647245191965,-0.003272492347489368,30.4735078259342,56.735389161287394,-100.875
1772747272.586494,88.1579429326183,1.7539080647143919,-6.453994793810229,-0.2811516786555332,-1.0873472088213616,9.764447294661831,0.0043564707911228585,0.0043701647245191965,-0.003272492347489368,30.4735078259342,56.735389161287394,-100.875
1772747272.6193664,88.13783734070084,1.7576376256864015,-6.459305290457402,-0.3471382985580158,-1.0617252481133193,9.789720518576468,0.007642653042884967,-0.004351335566099232,-0.00545415391248228,30.16100821068716,56.73489878341955,-100.0625
1772747272.668031,88.1475060067539,1.763221625467973,-6.45431252011026,-0.2697589553542082,-1.0999456280878335,9.807697120341837,0.0032759118017148554,-0.002176523653886887,0.02181661564992912,30.16100821068716,56.73489878341955,-100.0625
1772747272.6949039,88.1475060067539,1.763221625467973,-6.45431252011026,-0.2697589553542082,-1.0999456280878335,9.807697120341837,0.0032759118017148554,-0.002176523653886887,0.02181661564992912,30.16100821068716,56.73489878341955,-100.0625
1772747272.7240102,88.1672609364166,1.7643400805432428,-6.454027212283704,-0.2558343935065774,-1.1301900625000045,9.808467459312345,-0.0021748119122123447,-0.004366741241170112,0.008726646259971648,30.163263948879223,55.297400553283175,-100.5
1772747272.7595363,88.1672609364166,1.7643400805432428,-6.454027212283704,-0.24656775314452684,-1.150317395748835,9.795599664462689,0.0021885058456086828,-0.004359894274471943,0.007635815477475192,30.163263948879223,55.297400553283175,-100.5
1772747272.8085773,88.1672609364166,1.7643400805432428,-6.454027212283704,-0.24656775314452684,-1.150317395748835,9.795599664462689,0.0021885058456086828,-0.004359894274471943,0.007635815477475192,30.163263948879223,55.297400553283175,-100.5
1772747272.8392837,88.17713844848942,1.7648992734965718,-6.453884413041692,-0.23631268814961304,-1.1625904888213423,9.825907430624481,-0.007635806076186798,-1.1982191721795688e-05,-0.008726646259971648,30.47291937249279,57.11038869958384,-101.6875
1772747272.909471,88.11752271337919,1.7663908349291408,-6.459767711267823,-0.23359202384117309,-1.1618441947628497,9.833966664212227,1.711741674542241e-06,-0.0010908294394552569,-0.025089107997418487,30.159733228230778,57.547397783061854,-101.6875
1772747272.9350255,88.04817352647581,1.7675004199780653,-6.45591779636959,-0.21840102178057338,-1.1613265476836157,9.835984882430013,0.0043701647245191965,-0.0043564707911228585,-0.037088246604879506,30.159733228230778,57.547397783061854,-101.6875
1772747272.9861534,88.04817352647581,1.7675004199780653,-6.45591779636959,-0.2083020779638352,-1.15429184415731,9.797186643621144,-0.0010874059561061724,-0.002183370620585056,0.018544123302439753,30.473998203802036,56.42288954604035,-99.25
1772747273.0236137,88.05805067429915,1.7680599181922814,-6.455775311595228,-0.2015813436663902,-1.1496103275433411,9.771366849098566,0.0043633177578210275,6.846966698168964e-06,-0.004363323129985824,30.473998203802036,56.42288954604035,-99.25
1772747273.0487032,88.05805067429915,1.7680599181922814,-6.455775311595228,-0.2015813436663902,-1.1496103275433411,9.771366849098566,0.0043633177578210275,6.846966698168964e-06,-0.004363323129985824,30.473998203802036,56.42288954604035,-99.25
1772747273.0695393,88.04838240845304,1.7624719653085796,-6.460764056225418,-0.19708252416701427,-1.1632203684766425,9.754184064269793,0.0010839824727570879,0.00436502949949557,-0.01090830782496456,30.473998203802036,56.42288954604035,-99.25
1772747273.0958488,88.04838240845304,1.7624719653085796,-6.460764056225418,-0.19708252416701427,-1.1632203684766425,9.754184064269793,0.0010839824727570879,0.00436502949949557,-0.01090830782496456,30.473998203802036,56.42288954604035,-99.25
1772747273.123261,88.02862833227961,1.7613520824137046,-6.461047853060069,-0.2877516225312982,-1.1724246757233416,9.759474671447126,-0.0010822707310825456,-0.005455858938950827,-0.014180800172453928,30.473998203802036,56.42288954604035,-99.25
1772747273.1418257,88.02862833227961,1.7613520824137046,-6.461047853060069,-0.2877516225312982,-1.1724246757233416,9.759474671447126,-0.0010822707310825456,-0.005455858938950827,-0.014180800172453928,30.473998203802036,56.42288954604035,-99.25
1772747273.1803913,88.03347391676036,1.7617029559447885,-6.461257061181806,-0.21763169868987678,-1.1783453213575805,9.762995511423686,0.006538129670033373,0.004373588207868281,0.017453292519943295,30.16100821068716,56.73489878341955,-100.5
1772747273.2203531,88.0336157946935,1.7618887092246374,-6.451379567012632,-0.18437434891937565,-1.1655809036652485,9.772028814512366,-0.002190217587283225,0.0054507237139272,-0.007635815477475192,30.16100821068716,56.73489878341955,-100.5
1772747273.255091,88.0336157946935,1.7618887092246374,-6.451379567012632,-0.18437434891937565,-1.1655809036652485,9.772028814512366,-0.002190217587283225,0.0054507237139272,-0.007635815477475192,30.16100821068716,56.73489878341955,-100.5
1772747273.301131,88.06848756918686,1.7587468866091989,-6.455449875186011,-0.16222620661607787,-1.1671216490452483,9.768005041687317,-0.007628959109488629,-0.004375299949542823,0.016362461737446838,30.909143851382257,57.92357422824111,-100.5
1772747273.3222964,88.06848756918686,1.7587468866091989,-6.455449875186011,-0.16222620661607787,-1.1671216490452483,9.768005041687317,-0.007628959109488629,-0.004375299949542823,0.016362461737446838,30.909143851382257,57.92357422824111,-100.5
1772747273.3686204,88.06345736662279,1.7585380028834825,-6.455800620464523,-0.19434461746714735,-1.1514949484603068,9.775362600942692,-0.0032759118017148554,0.002176523653886887,-0.004363323129985824,30.909143851382257,57.92357422824111,-100.5
1772747273.400251,88.02415675981935,1.7512701819911565,-6.461212221415229,-0.22576488222871363,-1.1344210861451078,9.800329644681739,-0.009827735405144564,0.006529570961660662,-0.017453292519943295,30.474586657243446,56.04789000774391,-101.25
1772747273.423196,88.13930706110216,1.733044048467427,-6.453924865399658,-0.300668280100808,-1.1557013094341697,9.787860881932449,0.013112205915232133,-0.014160241812823833,0.06435901616729091,30.474586657243446,56.04789000774391,-101.25
1772747273.4508739,88.13930706110216,1.733044048467427,-6.453924865399658,-0.300668280100808,-1.1557013094341697,9.787860881932449,0.013112205915232133,-0.014160241812823833,0.06435901616729091,30.474586657243446,56.04789000774391,-101.25
1772747273.5123303,88.1496735329068,1.728930171394585,-6.438880911013579,-0.36001614602534343,-1.1774613978703172,9.758470435455685,0.005438741522205404,0.009826023663470023,-0.015271630954950384,29.910420065048122,57.10950601942173,-100.0625
1772747273.5318954,88.1592019155361,1.7343371644619947,-6.443767397511029,-0.3995482320989469,-1.1685267405269553,9.748946756760155,0.0022073350040286476,-0.016359018108479766,0.03599741582238305,29.910420065048122,57.10950601942173,-100.0625
1772747273.5471117,88.1592019155361,1.7343371644619947,-6.443767397511029,-0.3995482320989469,-1.1685267405269553,9.748946756760155,0.0022073350040286476,-0.016359018108479766,0.03599741582238305,29.910420065048122,57.10950601942173,-100.0625
1772747273.5711896,88.18848486962708,1.7408623240263408,-6.448371497819749,-0.4258563937785935,-1.1625808258716104,9.735918631560104,-0.0010959646644788836,0.0032707765766912286,0.00545415391248228,29.910420065048122,57.10950601942173,-100.0625
1772747273.6067884,88.15456023714397,1.7289641640055042,-6.448409075903149,-0.38649735248561207,-1.1585346500288753,9.764044788553678,-0.0011028116311770527,0.0076340943345122566,-0.022907446432425576,29.473509057143676,56.7338199521103,-99.6875
1772747273.632115,88.15456023714397,1.7289641640055042,-6.448409075903149,-0.3603253468943905,-1.1424615348491363,9.77941732013582,0.003274200060040313,-0.0010856942144316301,0.008726646259971648,29.473509057143676,56.7338199521103,-99.6875
1772747273.646723,88.17895696567162,1.7354537062208775,-6.443486924701457,-0.3429081695338914,-1.1317650562454808,9.789647568181307,-0.002183370620585056,0.0010874059561061724,0.014180800172453928,29.473509057143676,56.7338199521103,-99.6875
1772747273.670375,88.17895696567162,1.7354537062208775,-6.443486924701457,-0.3429081695338914,-1.1317650562454808,9.789647568181307,-0.002183370620585056,0.0010874059561061724,0.014180800172453928,29.473509057143676,56.7338199521103,-99.6875
1772747273.710455,88.17860733475291,1.7403036488768493,-6.448512288017982,-0.35472248732462264,-1.1313736286597424,9.78642034885426,-0.0021782353955614293,-0.0021850823622595983,0.0,29.910420065048122,57.10950601942173,-101.25
1772747273.7500615,88.17902638587329,1.7302576170033035,-6.458216566149175,-0.3625847838397771,-1.131113137973966,9.780927558735195,0.003267353093342144,0.0032776235433893976,0.004363323129985824,29.910420065048122,57.10950601942173,-101.25
1772747273.7717395,88.17902638587329,1.7302576170033035,-6.458216566149175,-0.3310208708663581,-1.130882043352569,9.780617279976763,-0.0010942529228043414,0.0021799471372359715,0.001090830782496456,29.91149889635737,56.422006865878245,-99.25
1772747273.793847,88.17923654786689,1.7252346537349397,-6.463068688380795,-0.30332522419698627,-1.1307177541035462,9.780410792929066,-0.0021816588789105138,-3.423483349084482e-06,0.003272492347489368,29.91149889635737,56.422006865878245,-99.25
1772747273.8069227,88.17923654786689,1.7252346537349397,-6.463068688380795,-0.30332522419698627,-1.1307177541035462,9.780410792929066,-0.0021816588789105138,-3.423483349084482e-06,0.003272492347489368,29.91149889635737,56.422006865878245,-99.25
1772747273.825249,88.17923654786689,1.7252346537349397,-6.463068688380795,-0.28486258563922706,-1.1506790669762696,9.780273378105436,0.0010874059561061724,0.002183370620585056,0.003272492347489368,29.91149889635737,56.422006865878245,-99.25
1772747273.8628428,88.17923654786689,1.7252346537349397,-6.463068688380795,-0.27257590592022446,-1.1639630977105917,9.780181930075335,0.0,0.0,0.002181661564992912,30.912576496457138,55.736076921511845,-100.5
1772747273.8911884,88.17923654786689,1.7252346537349397,-6.463068688380795,-0.26109089448957423,-1.1493824694704442,9.776775960725523,-0.0010891176977807146,-0.0010925411811297991,0.003272492347489368,30.912576496457138,55.736076921511845,-100.5
1772747273.9152956,88.17923654786689,1.7252346537349397,-6.463068688380795,-0.26109089448957423,-1.1493824694704442,9.776775960725523,-0.0010891176977807146,-0.0010925411811297991,0.003272492347489368,30.912576496457138,55.736076921511845,-100.5
1772747273.9504232,88.17944713413925,1.7202117256763982,-6.467920799440996,-0.2735183932111773,-1.1397107193328526,9.774509326170394,0.0,0.0,0.007635815477475192,29.47576479533574,55.29632172197393,-99.25
1772747274.0008185,88.17944713413925,1.7202117256763982,-6.467920799440996,-0.24834292807827535,-1.1298766782681324,9.773000906193923,1.711741674542241e-06,-0.0010908294394552569,0.001090830782496456,29.47576479533574,55.29632172197393,-99.25
1772747274.0246677,88.17965814468279,1.7151888329008431,-6.472772899368203,-0.24162426002706,-1.1233479813329663,9.775342181257056,1.0270450047253447e-05,-0.006544976636731542,0.006544984694978736,29.91444116356441,54.54700917439602,-99.25
