timestamp,yaw,pitch,roll,ax,ay,az,gx,gy,gz,mx,my,mz
1772311542.773179,-0.07528160018002536,1.0604405802181311,-8.120925367427269,-0.18908443656881097,-1.3770976561970256,9.739465290515232,0.0,0.003272492347489368,0.001090830782496456,6.25,-3.25,-64.25
1772311543.0582151,160.52249507306553,1.0662096684374345,-8.116585147871954,-0.18973015725395312,-1.3861973100239338,9.74689511961778,-0.001090830782496456,-0.002181661564992912,0.001090830782496456,7.5,-4.0625,-64.6875
1772311543.2052739,160.18505254011086,1.0642832221488345,-8.115947272773937,-0.18286775581399617,-1.3888792384333504,9.744258323559418,-0.002181661564992912,-0.002181661564992912,0.002181661564992912,7.0625,-4.0625,-63.0625
1772311543.2520604,160.15918612640988,1.0623772711538664,-8.116537339354563,-0.1785633477519636,-1.3892541456971217,9.74617897846752,-0.001090830782496456,-0.001090830782496456,0.001090830782496456,7.0625,-4.0625,-63.0625
1772311543.277941,160.15918612640988,1.0623772711538664,-8.116537339354563,-0.17904392397738894,-1.3861585305858537,9.744112041146423,0.0,-0.001090830782496456,0.001090830782496456,6.25,-4.0625,-64.0
1772311543.309377,160.0217465682312,1.0596003231521562,-8.11868908744177,-0.17601863037970192,-1.3840984333095914,9.746081629155753,-0.001090830782496456,-0.002181661564992912,0.001090830782496456,6.25,-4.0625,-64.0
1772311543.3636515,159.92357859809428,1.0607138345976705,-8.114121488525713,-0.1806955546998238,-1.3827274615850331,9.750737479681543,0.0,0.0,-0.003272492347489368,6.6875,-4.0625,-63.0625
1772311543.4190485,159.9171250076131,1.0602377742489126,-8.114269851121797,-0.17711777217555824,-1.3818150952170973,9.753835896197199,-0.001090830782496456,-0.001090830782496456,0.001090830782496456,6.6875,-4.0625,-63.0625
1772311543.451039,159.77930950145085,1.0643327495649337,-8.117704491514342,-0.1814270212867478,-1.3812079255910361,9.752552746069467,-0.001090830782496456,0.0,0.002181661564992912,7.0625,-4.75,-62.6875
1772311543.4978435,159.68786249902263,1.0647114635401929,-8.119957745589742,-0.1809496667254584,-1.3808038609874216,9.751698823993188,0.0,0.001090830782496456,0.0,7.0625,-4.75,-62.6875
1772311543.5568664,-0.34093283657155776,1.0606992940009445,-8.12028258326617,-0.30308062476308156,1.3589138415757291,9.757820771804997,-0.0011207254079818186,0.00307460253110552,-0.001090830782496456,-6.985080778840438,0.9130424486703188,-63.5
1772311543.6317627,-0.3477993064221905,1.0602005102762344,-8.120258554154699,-0.30321796450573796,1.358673311781554,9.76189485968712,-9.58578976133123e-05,0.003448177667099459,0.0,-7.028454069328876,1.7620271409187749,-62.25
1772311543.6537762,-0.3477993064221905,1.0602005102762344,-8.120258554154699,-0.30321796450573796,1.358673311781554,9.76189485968712,-9.58578976133123e-05,0.003448177667099459,0.0,-7.028454069328876,1.7620271409187749,-62.25
1772311543.703133,-0.3490379577443496,1.0601764488173724,-8.120757446124825,-0.30216376732212835,1.3553704113410892,9.764606119662128,-0.00037357513599393954,0.0010248675103685064,0.0,-7.028454069328876,1.7620271409187749,-62.25
1772311543.7316046,-0.41259851639382206,1.0637698263724316,-8.115413820872242,-0.30260780612075233,1.3563151985431106,9.766410432888737,0.0011207254079818186,-0.00307460253110552,0.0,-6.985080778840438,0.9130424486703188,-63.0625
1772311543.7497835,-0.41259851639382206,1.0637698263724316,-8.115413820872242,-0.30290330898099815,1.3569439438720912,9.767611183185545,0.002145592918350325,-0.00270102739511158,-0.001090830782496456,-6.985080778840438,0.9130424486703188,-63.0625
1772311543.8167136,-0.6338983211416898,1.061891401490673,-8.120140655104619,-0.2999571322841734,1.3585079621131442,9.758374933972854,0.00027771723838062733,0.0024233101567309526,0.002181661564992912,-8.43774805902957,1.2483244539552907,-63.0625
1772311543.8611174,-0.8402415715407512,1.0622867336352664,-8.117552661728745,-0.29685088935522475,1.3564059682320013,9.752228313297472,0.0010248675103685064,0.00037357513599393954,0.001090830782496456,-8.43774805902957,1.2483244539552907,-63.0625
1772311543.8756151,-0.8402415715407512,1.0622867336352664,-8.117552661728745,-0.29478371938501646,1.355007114784911,9.748137805900258,0.001398442646362446,-0.000651292374374567,0.0,-7.662831242101067,0.3999044949483157,-64.0
1772311543.9130902,-1.026000363738135,1.0641864451120164,-8.115046611849007,-0.29769646665914157,1.3560734287432623,9.745415618921374,-0.0010248675103685064,-0.00037357513599393954,0.001090830782496456,-7.662831242101067,0.3999044949483157,-64.0
1772311543.9489527,-1.026000363738135,1.0641864451120164,-8.115046611849007,-0.29763763213137967,1.3610714745685348,9.746949145603066,0.00037357513599393954,-0.0010248675103685064,-0.001090830782496456,-8.58757800939392,1.6593685342846598,-63.0625
1772311543.9613793,-1.3258218068479686,1.0635975309436712,-8.12174863926617,-0.300741308959714,1.3632520229852616,9.751314802186437,0.0,0.0,-0.001090830782496456,-8.58757800939392,1.6593685342846598,-63.0625
1772311543.9770503,-1.3258218068479686,1.0635975309436712,-8.12174863926617,-0.3028067712186287,1.3647031535982714,9.750874986167771,0.0016761598847430733,0.0017720177823563855,0.001090830782496456,-8.58757800939392,1.6593685342846598,-63.0625
1772311544.00673,-1.3258218068479686,1.0635975309436712,-8.12174863926617,-0.3028067712186287,1.3647031535982714,9.750874986167771,0.0016761598847430733,0.0017720177823563855,0.001090830782496456,-8.58757800939392,1.6593685342846598,-63.0625
1772311544.03641,-1.3039573851991813,1.0651216566273878,-8.121333958677129,-0.3073241438285462,1.3645232695628766,9.750582293520416,0.002796885292724892,-0.001302584748749134,-0.001090830782496456,-7.178284019693225,2.173071221248144,-63.5
1772311544.0794132,-1.346417104837232,1.063399658166014,-8.11480849560935,-0.3103304048380878,1.3644035587467576,9.750387509833192,0.001398442646362446,-0.000651292374374567,0.0,-7.178284019693225,2.173071221248144,-63.5
1772311544.1019602,-1.346417104837232,1.063399658166014,-8.11480849560935,-0.3103304048380878,1.3644035587467576,9.750387509833192,0.001398442646362446,-0.000651292374374567,0.0,-7.178284019693225,2.173071221248144,-63.5
1772311544.1198587,-1.4043581198017234,1.0662105771627204,-8.116879876848948,-0.3186166990564721,1.3620327020395637,9.75025788346522,0.00037357513599393954,-0.0010248675103685064,-0.002181661564992912,-8.17653392906455,1.8091984846490092,-64.25
1772311544.1470866,-1.5814322198829072,1.0604870655590077,-8.11946036514814,-0.3147026436468301,1.363891709129617,9.753516730272677,0.00037357513599393954,-0.0010248675103685064,0.0,-8.17653392906455,1.8091984846490092,-64.25
1772311544.2045712,-1.7397880860408605,1.064392988513486,-8.117083632980961,-0.308955052945242,1.3662744528297395,9.755685456419334,0.002049735020737013,0.0007471502719878791,-0.001090830782496456,-7.748448356594981,0.634786826565098,-63.0625
1772311544.2567346,-1.867570844866505,1.0621810876720976,-8.119361383369087,-0.3016933097936441,1.3584316504971745,9.760473831150996,0.0006512923743745669,0.001398442646362446,0.0,-7.748448356594981,0.634786826565098,-63.0625
1772311544.3107686,-2.039639207707757,1.0650966825729273,-8.116934645789605,-0.30029748658972794,1.3626408448027003,9.763660441045266,-0.00037357513599393954,0.0010248675103685064,0.0,-8.822460341010702,1.5737514197907458,-64.25
1772311544.390297,-2.024604437471723,1.066124172361514,-8.116498373556974,-0.2993685818398885,1.3654420165932466,9.762435982625819,-0.00037357513599393954,0.0010248675103685064,-0.001090830782496456,-8.822460341010702,1.5737514197907458,-64.25
1772311544.4402697,-2.0820648929225776,1.0620760153159747,-8.117245312771892,-0.3030388319029134,1.369303400429889,9.758276007518454,-0.00037357513599393954,0.0010248675103685064,0.0,-7.396124859169807,0.7632124983059694,-63.0625
1772311544.4619198,-2.1107962140088903,1.0600515760181244,-8.117617273992414,-0.3043357470723149,1.3687302776893557,9.75885270226179,-0.001398442646362446,0.000651292374374567,0.0,-7.396124859169807,0.7632124983059694,-63.0625
1772311544.506027,-2.103949246546761,1.0605497973306361,-8.117648954735479,-0.3051988296300599,1.3683488709077312,9.762581597878695,0.0006512923743745669,0.001398442646362446,0.0,-7.263336400945659,1.676410026424861,-62.75
1772311544.5305462,-2.103949246546761,1.0605497973306361,-8.117648954735479,-0.30462760618281326,1.364952218405818,9.765063136257252,-0.0007471502719878791,0.002049735020737013,-0.001090830782496456,-7.263336400945659,1.676410026424861,-62.75
1772311544.5674627,-2.103949246546761,1.0605497973306361,-8.117648954735479,-0.30462760618281326,1.364952218405818,9.765063136257252,-0.0007471502719878791,0.002049735020737013,-0.001090830782496456,-7.263336400945659,1.676410026424861,-62.75
1772311544.6050365,-2.267829987796549,1.0640032456467388,-8.114759688181746,-0.3053930586078167,1.3658346146582243,9.760024348912944,0.0,0.0,0.0,-8.822460341010702,1.5737514197907458,-64.25
1772311544.6425686,-2.339484627656029,1.065801133006282,-8.116789346689659,-0.30789969394716565,1.3621334137096917,9.75667109222225,0.0013025847487491337,0.002796885292724892,0.002181661564992912,-8.822460341010702,1.5737514197907458,-64.25
1772311544.6774073,-2.3170969333896565,1.0604848314508084,-8.115031433590145,-0.31071342701271293,1.362813136372902,9.754439537352924,-0.00037357513599393954,0.0010248675103685064,-0.002181661564992912,-6.900028397588005,1.4097036434936017,-64.0
1772311544.7191958,-2.310252653620973,1.0609828260728416,-8.115063953644986,-0.30515467858954476,1.3624138441592577,9.759644685930128,0.0010248675103685064,0.00037357513599393954,0.0,-6.900028397588005,1.4097036434936017,-64.0
1772311544.8495574,-2.274674846412457,1.063505216402853,-8.114727536198062,-0.30145539360921475,1.3621481196514635,9.763108654162938,-0.0031704604287188316,0.002327452259117641,0.002181661564992912,-7.028454069328876,1.7620271409187749,-63.5
1772311544.9774096,-2.5964036632308156,1.0626884255586353,-8.114976980333127,-0.29784796553036413,1.358828452410529,9.765413886326812,-9.58578976133123e-05,0.003448177667099459,0.001090830782496456,-7.028454069328876,1.7620271409187749,-63.5
1772311545.0961723,-2.4325334346100207,1.0592269842822641,-8.117858211687484,-0.29859009299083616,1.3554736556966376,9.76694799258074,0.00037357513599393954,-0.0010248675103685064,0.0,-5.490734407887312,1.9234063304570859,-64.0
1772311545.1797557,-2.5247160442750016,1.059525374771674,-8.11978708040615,-0.29908397052567337,1.353241075959078,9.767968923155639,0.00037357513599393954,-0.0010248675103685064,0.0,-7.89827830695933,1.045830906894467,-64.25
1772311545.28613,-2.5247160442750016,1.059525374771674,-8.11978708040615,-0.29941264050813393,1.3517553190832816,9.765303229341374,0.0010248675103685064,0.00037357513599393954,-0.001090830782496456,-7.89827830695933,1.045830906894467,-64.25
1772311545.4044683,-2.5247160442750016,1.059525374771674,-8.11978708040615,-0.3007769619581392,1.353909395028766,9.763529239885731,-0.0017720177823563855,0.0016761598847430735,0.0,-7.824210431639377,1.9376241563898806,-63.0625
1772311545.4489076,-2.5110321223234737,1.060521818506168,-8.119854095628385,-0.3016849026426485,1.355342908507881,9.762348669719762,-0.0011207254079818186,0.00307460253110552,0.001090830782496456,-7.824210431639377,1.9376241563898806,-63.0625
1772311545.5373821,-2.7752895589194684,1.0637446218623428,-8.119374182417138,-0.3015456363550425,1.3537889329949964,9.76104016799905,0.00027771723838062733,0.0024233101567309526,0.0,-8.026703978700201,1.39815440431964,-62.75
1772311545.5861006,-2.761611638663542,1.0647409690991385,-8.11944286319122,-0.2990536163177969,1.3564083376182183,9.75734710847661,-0.0007471502719878791,0.002049735020737013,0.001090830782496456,-8.58757800939392,1.6593685342846598,-64.25
1772311545.6414442,-2.761611638663542,1.0647409690991385,-8.11944286319122,-0.2990536163177969,1.3564083376182183,9.75734710847661,-0.0007471502719878791,0.002049735020737013,0.001090830782496456,-8.58757800939392,1.6593685342846598,-64.25
1772311545.7201612,-2.882555670528587,1.0643944430870365,-8.114898527510954,-0.298199526583725,1.3645459411293148,9.75882509965349,0.0,0.0,-0.001090830782496456,-7.178284019693225,2.173071221248144,-63.5
1772311545.7361333,-2.882555670528587,1.0643944430870365,-8.114898527510954,-0.298199526583725,1.3645459411293148,9.75882509965349,0.0,0.0,-0.001090830782496456,-7.178284019693225,2.173071221248144,-63.5
1772311545.770539,-3.004856226845111,1.0626249572985336,-8.117687611389792,-0.29991278988945247,1.36738750455137,9.759479665560368,-0.002049735020737013,-0.0007471502719878791,0.001090830782496456,-7.178284019693225,2.173071221248144,-63.5
1772311545.8365467,-2.9610457000514896,1.0656833319900136,-8.116902993755676,-0.302255401032534,1.3674552703841607,9.762998834950261,0.00027771723838062733,0.0024233101567309526,-0.001090830782496456,-6.900028397588005,1.4097036434936017,-63.5625
1772311545.9012508,-2.9610457000514896,1.0656833319900136,-8.116902993755676,-0.30381438257957366,1.3675003677888886,9.755305467745579,0.00027771723838062733,0.0024233101567309526,0.0,-7.674380481275027,1.5265800760605115,-63.0625
1772311545.95289,-2.9980199005366,1.0631229555110118,-8.117723026631152,-0.3037062721360016,1.3643875490586292,9.756875841226044,0.0007471502719878791,-0.002049735020737013,-0.001090830782496456,-7.674380481275027,1.5265800760605115,-63.0625
1772311546.0101378,-3.0833468686784626,1.0639098645032488,-8.119692258400477,-0.3036343258434772,1.3623160029661052,9.757920907235073,0.00037357513599393954,-0.0010248675103685064,0.001090830782496456,-7.748448356594981,0.634786826565098,-63.5
1772311546.0673475,-3.0833468686784626,1.0639098645032488,-8.119692258400477,-0.3004436158401599,1.3620830074303785,9.75861638698993,0.0010248675103685064,0.00037357513599393954,-0.001090830782496456,-7.748448356594981,0.634786826565098,-63.5
1772311546.137791,-3.0833468686784626,1.0639098645032488,-8.119692258400477,-0.30375425502117737,1.3670680173545913,9.759079220997767,-0.0011207254079818186,0.00307460253110552,0.0,-7.674380481275027,1.5265800760605115,-62.75
1772311546.1645448,-3.0833468686784626,1.0639098645032488,-8.119692258400477,-0.30375425502117737,1.3670680173545913,9.759079220997767,-0.0011207254079818186,0.00307460253110552,0.0,-7.674380481275027,1.5265800760605115,-62.75
1772311546.2331638,-3.0833468686784626,1.0639098645032488,-8.119692258400477,-0.30595744841388167,1.3703854857729452,9.75938723185979,0.002049735020737013,0.0007471502719878791,0.0,-7.674380481275027,1.5265800760605115,-62.75
1772311546.2756026,-3.0833468686784626,1.0639098645032488,-8.119692258400477,-0.3062780537572816,1.3694503933974742,9.75290198623312,-0.00027771723838062733,-0.0024233101567309526,-0.001090830782496456,-6.6174099889995075,1.9118570912831243,-64.25
1772311546.3005362,-3.0833468686784626,1.0639098645032488,-8.119692258400477,-0.3064914130319179,1.3688280998672646,9.75527635112815,0.0,0.0,0.0,-6.6174099889995075,1.9118570912831243,-64.25
1772311546.3285465,-3.0833468686784626,1.0639098645032488,-8.119692258400477,-0.30548780599764713,1.3652711399250492,9.760201576149719,-0.001398442646362446,0.000651292374374567,0.0,-6.6174099889995075,1.9118570912831243,-64.25
1772311546.3551624,-3.0833468686784626,1.0639098645032488,-8.119692258400477,-0.30548780599764713,1.3652711399250492,9.760201576149719,-0.001398442646362446,0.000651292374374567,0.0,-6.6174099889995075,1.9118570912831243,-64.25
1772311546.386196,-3.0833468686784626,1.0639098645032488,-8.119692258400477,-0.30167708617802996,1.3640496180655128,9.763479258383203,-0.0006512923743745669,-0.001398442646362446,0.001090830782496456,-7.674380481275027,1.5265800760605115,-64.0
1772311546.4289856,-3.0833468686784626,1.0639098645032488,-8.119692258400477,-0.3002866899547663,1.3663795394626197,9.765660519295478,-0.0010248675103685064,-0.00037357513599393954,0.002181661564992912,-7.674380481275027,1.5265800760605115,-64.0
1772311546.4539568,-3.0833468686784626,1.0639098645032488,-8.119692258400477,-0.29936139679992785,1.367930076125467,9.763767012358997,0.0016761598847430733,0.0017720177823563855,-0.001090830782496456,-7.028454069328876,1.7620271409187749,-63.5
1772311546.476122,-3.0833468686784626,1.0639098645032488,-8.119692258400477,-0.29760002929342266,1.3658191104046273,9.759161792937308,0.0,0.0,-0.001090830782496456,-7.028454069328876,1.7620271409187749,-63.5
1772311546.5224125,-3.0833468686784626,1.0639098645032488,-8.119692258400477,-0.29760002929342266,1.3658191104046273,9.759161792937308,0.0,0.0,-0.001090830782496456,-7.028454069328876,1.7620271409187749,-63.5
1772311546.5448108,-3.0833468686784626,1.0639098645032488,-8.119692258400477,-0.2995706894429429,1.363268691050279,9.752751959148526,-0.0016761598847430733,-0.0017720177823563855,0.0,-7.263336400945659,1.676410026424861,-62.25
1772311546.5734475,-3.0833468686784626,1.0639098645032488,-8.119692258400477,-0.30402497230806735,1.3604258202118489,9.748486286364626,-0.0010248675103685064,-0.00037357513599393954,-0.001090830782496456,-7.263336400945659,1.676410026424861,-62.25
1772311546.6029398,-3.0833468686784626,1.0639098645032488,-8.119692258400477,-0.30402497230806735,1.3604258202118489,9.748486286364626,-0.0010248675103685064,-0.00037357513599393954,-0.001090830782496456,-7.263336400945659,1.676410026424861,-62.25
1772311546.6307704,-3.0833468686784626,1.0639098645032488,-8.119692258400477,-0.3069892477972078,1.3585339214258216,9.745647528777628,0.0010248675103685064,0.00037357513599393954,-0.001090830782496456,-6.899463664346524,0.6781601170535365,-64.0
1772311546.6563103,-3.0833468686784626,1.0639098645032488,-8.119692258400477,-0.31010753527026585,1.3604177144669498,9.75044859072912,0.0,0.0,-0.002181661564992912,-6.899463664346524,0.6781601170535365,-64.0
1772311546.6748774,-3.0833468686784626,1.0639098645032488,-8.119692258400477,-0.31010753527026585,1.3604177144669498,9.75044859072912,0.0,0.0,-0.002181661564992912,-6.899463664346524,0.6781601170535365,-64.0
1772311546.7097485,-3.0833468686784626,1.0639098645032488,-8.119692258400477,-0.31103712550187057,1.3585285271431384,9.75364364382646,0.00037357513599393954,-0.0010248675103685064,-0.001090830782496456,-6.900028397588005,1.4097036434936017,-64.25
1772311546.7360692,-3.0833468686784626,1.0639098645032488,-8.119692258400477,-0.31051016216863825,1.3541284635334123,9.745734580849703,0.002049735020737013,0.0007471502719878791,-0.002181661564992912,-6.900028397588005,1.4097036434936017,-64.25
1772311546.7501826,-3.0833468686784626,1.0639098645032488,-8.119692258400477,-0.3070166434076032,1.3523458656012324,9.740471187788692,-0.001398442646362446,0.000651292374374567,0.002181661564992912,-6.900028397588005,1.4097036434936017,-64.25
1772311546.773995,-3.0833468686784626,1.0639098645032488,-8.119692258400477,-0.3070166434076032,1.3523458656012324,9.740471187788692,-0.001398442646362446,0.000651292374374567,0.002181661564992912,-6.900028397588005,1.4097036434936017,-64.25
1772311546.7884862,-3.0833468686784626,1.0639098645032488,-8.119692258400477,-0.30583734094545795,1.3543023971396255,9.740313570209862,0.00037357513599393954,-0.0010248675103685064,0.0,-7.263336400945659,1.676410026424861,-63.5
1772311546.819912,-3.0833468686784626,1.0639098645032488,-8.119692258400477,-0.306198123578734,1.358747277571872,9.743553789179174,0.0006512923743745669,0.001398442646362446,0.001090830782496456,-7.263336400945659,1.676410026424861,-63.5
1772311546.8372345,-3.0833468686784626,1.0639098645032488,-8.119692258400477,-0.30643822039097307,1.3617052958469642,9.752400342122272,-0.0006512923743745669,-0.001398442646362446,0.0,-7.263336400945659,1.676410026424861,-63.5
1772311546.8726192,-3.0833468686784626,1.0639098645032488,-8.119692258400477,-0.30643822039097307,1.3617052958469642,9.752400342122272,-0.0006512923743745669,-0.001398442646362446,0.0,-7.263336400945659,1.676410026424861,-63.5
1772311546.901467,-3.0833468686784626,1.0639098645032488,-8.119692258400477,-0.3097408326867962,1.3625282287176468,9.758287624283431,-0.0010248675103685064,-0.00037357513599393954,0.001090830782496456,-7.674380481275027,1.5265800760605115,-64.0
1772311546.9204693,-3.0833468686784626,1.0639098645032488,-8.119692258400477,-0.3119386842770698,1.3630758813503234,9.758860433089113,-0.00037357513599393954,0.0010248675103685064,-0.001090830782496456,-7.674380481275027,1.5265800760605115,-64.0
1772311546.9438536,-3.0833468686784626,1.0639098645032488,-8.119692258400477,-0.3119386842770698,1.3630758813503234,9.758860433089113,-0.00037357513599393954,0.0010248675103685064,-0.001090830782496456,-7.674380481275027,1.5265800760605115,-64.0
1772311546.9597476,-3.0833468686784626,1.0639098645032488,-8.119692258400477,-0.30711566886011565,1.365731528556013,9.755896519243281,-0.00037357513599393954,0.0010248675103685064,-0.001090830782496456,-8.309322387288699,0.8960009565301175,-63.0625
1772311546.9917226,-3.0833468686784626,1.0639098645032488,-8.119692258400477,-0.3016148154804212,1.3612131710072064,9.753924067687969,-0.00027771723838062733,-0.0024233101567309526,0.0,-8.309322387288699,0.8960009565301175,-63.0625
1772311547.011356,-3.0833468686784626,1.0639098645032488,-8.119692258400477,-0.3016148154804212,1.3612131710072064,9.753924067687969,-0.00027771723838062733,-0.0024233101567309526,0.0,-8.309322387288699,0.8960009565301175,-63.0625
1772311547.027204,-3.0833468686784626,1.0639098645032488,-8.119692258400477,-0.30109688955412806,1.3570606592836743,9.752611423211635,0.001398442646362446,-0.000651292374374567,-0.001090830782496456,-8.309322387288699,0.8960009565301175,-63.0625
1772311547.0418909,-3.0833468686784626,1.0639098645032488,-8.119692258400477,-0.3050406414332888,1.3562944444194323,9.748392761268514,0.0007471502719878791,-0.002049735020737013,0.0,-8.15949243692435,0.4849568762007485,-63.5625
1772311547.0621502,-3.0833468686784626,1.0639098645032488,-8.119692258400477,-0.3045223337049401,1.356930132234622,9.752275512285548,-0.0010248675103685064,-0.00037357513599393954,0.0,-8.15949243692435,0.4849568762007485,-63.5625
1772311547.094691,-3.0833468686784626,1.0639098645032488,-8.119692258400477,-0.3045223337049401,1.356930132234622,9.752275512285548,-0.0010248675103685064,-0.00037357513599393954,0.0,-8.15949243692435,0.4849568762007485,-63.5625
1772311547.1242237,-3.0833468686784626,1.0639098645032488,-8.119692258400477,-0.3010345751522656,1.3584987706226945,9.754859439714213,-0.0017720177823563855,0.0016761598847430735,-0.002181661564992912,-7.89827830695933,1.045830906894467,-64.375
1772311547.1798134,-3.0833468686784626,1.0639098645032488,-8.119692258400477,-0.2987135107962766,1.359542681947118,9.75657901455363,-0.002049735020737013,-0.0007471502719878791,-0.001090830782496456,-7.89827830695933,1.045830906894467,-64.375
1772311547.2282686,-3.0833468686784626,1.0639098645032488,-8.119692258400477,-0.29716886839535367,1.360237393272268,9.757723372400353,0.00037357513599393954,-0.0010248675103685064,0.0,-8.15949243692435,0.4849568762007485,-63.5
1772311547.2489848,-3.0833468686784626,1.0639098645032488,-8.119692258400477,-0.29928375668166074,1.3595541206505595,9.758484929764032,0.0,0.0,-0.003272492347489368,-8.15949243692435,0.4849568762007485,-63.5
1772311547.2748563,-3.0833468686784626,1.0639098645032488,-8.119692258400477,-0.30069119121134796,1.359099410353468,9.758991737682408,-0.0017720177823563855,0.0016761598847430735,0.0,-8.309322387288699,0.8960009565301175,-63.0625
1772311547.3152928,-3.0833468686784626,1.0639098645032488,-8.119692258400477,-0.30069119121134796,1.359099410353468,9.758991737682408,-0.0017720177823563855,0.0016761598847430735,0.0,-8.309322387288699,0.8960009565301175,-63.0625
1772311547.3414044,-3.0833468686784626,1.0639098645032488,-8.119692258400477,-0.301627823168781,1.3587968057302002,9.75932901269067,0.00027771723838062733,0.0024233101567309526,0.002181661564992912,-8.309322387288699,0.8960009565301175,-63.0625
1772311547.3677142,-3.0833468686784626,1.0639098645032488,-8.119692258400477,-0.3033967365217501,1.3617382562830656,9.75955346544106,-0.00037357513599393954,0.0010248675103685064,0.0,-7.89827830695933,1.045830906894467,-63.5
1772311547.4057329,-3.0833468686784626,1.0639098645032488,-8.119692258400477,-0.3045739285980942,1.363695758767842,9.753012612824504,-0.0007471502719878791,0.002049735020737013,0.002181661564992912,-7.89827830695933,1.045830906894467,-63.5
1772311547.4264088,-3.0833468686784626,1.0639098645032488,-8.119692258400477,-0.3045739285980942,1.363695758767842,9.753012612824504,-0.0007471502719878791,0.002049735020737013,0.002181661564992912,-7.89827830695933,1.045830906894467,-63.5
1772311547.4553962,-3.0833468686784626,1.0639098645032488,-8.119692258400477,-0.30535733677480403,1.3649984548047254,9.755349971888936,0.0,0.0,0.0,-8.026703978700201,1.39815440431964,-64.0
1772311547.4846425,-3.0833468686784626,1.0639098645032488,-8.119692258400477,-0.3078759214663348,1.3615769586677058,9.753560346528985,0.0,0.0,0.002181661564992912,-8.026703978700201,1.39815440431964,-64.0
1772311547.5178022,-3.0833468686784626,1.0639098645032488,-8.119692258400477,-0.3095520114441141,1.3592999912091355,9.752369370843363,-0.001398442646362446,0.000651292374374567,0.001090830782496456,-8.17653392906455,1.8091984846490092,-62.75
1772311547.5456493,-3.1484850866254104,1.9383826744187487,-8.299663929776367,-0.3106674306011743,1.35778469480085,9.748231678121332,0.0,0.0,-0.002181661564992912,-8.17653392906455,1.8091984846490092,-62.75
1772311547.5594537,-3.0833468686784626,1.0639098645032488,-8.119692258400477,-0.3082668990408144,1.357921877216268,9.745478089835878,0.002049735020737013,0.0007471502719878791,-0.001090830782496456,-8.17653392906455,1.8091984846490092,-62.75
1772311547.6121075,-3.0833468686784626,1.0639098645032488,-8.119692258400477,-0.30781496735125147,1.3611560011306358,9.746990719298823,-0.0017720177823563855,0.0016761598847430735,0.001090830782496456,-8.17653392906455,1.8091984846490092,-63.5
1772311547.6381116,-3.0833468686784626,1.0639098645032488,-8.119692258400477,-0.30437138131091995,1.3644538697162782,9.747997357309234,0.0007471502719878791,-0.002049735020737013,0.0,-8.17653392906455,1.8091984846490092,-63.5
1772311547.6712043,-3.0833468686784626,1.0639098645032488,-8.119692258400477,-0.30437138131091995,1.3644538697162782,9.747997357309234,0.0007471502719878791,-0.002049735020737013,0.0,-8.17653392906455,1.8091984846490092,-63.5
1772311547.7015998,-3.0833468686784626,1.0639098645032488,-8.119692258400477,-0.3020797132684559,1.3666485644204172,9.74866726366028,0.00037357513599393954,-0.0010248675103685064,0.0,-6.900028397588005,1.4097036434936017,-63.5625
1772311547.7171395,-3.0833468686784626,1.0639098645032488,-8.119692258400477,-0.30055463378580555,1.3681091092296755,9.749113078853558,0.0025191680543442648,-0.0037258949054800863,-0.14180800172453928,-6.900028397588005,1.4097036434936017,-63.5625
1772311547.7296286,-3.0833468686784626,1.0639098645032488,-8.119692258400477,-0.3026825409756908,1.3679354902367205,9.75275487559192,0.0011207254079818186,-0.00307460253110552,-0.001090830782496456,-6.900028397588005,1.4097036434936017,-63.5625
1772311547.7426589,-3.0833468686784626,1.0639098645032488,-8.119692258400477,-0.3026825409756908,1.3679354902367205,9.75275487559192,0.0011207254079818186,-0.00307460253110552,-0.001090830782496456,-6.900028397588005,1.4097036434936017,-63.5625
1772311547.7597847,-3.0833468686784626,1.0639098645032488,-8.119692258400477,-0.3029530441921167,1.364677118187025,9.755178450639766,-0.00037357513599393954,0.0010248675103685064,0.001090830782496456,-7.89827830695933,1.045830906894467,-63.0625
1772311547.7997124,-3.0833468686784626,1.0639098645032488,-8.119692258400477,-0.30198746581276725,1.3593658774370183,9.756791312760999,0.0,0.0,0.0,-7.89827830695933,1.045830906894467,-63.0625
1772311547.8443708,-3.0833468686784626,1.0639098645032488,-8.119692258400477,-0.30198746581276725,1.3593658774370183,9.756791312760999,0.0,0.0,0.0,-7.89827830695933,1.045830906894467,-63.0625
1772311547.8656914,-3.0833468686784626,1.0639098645032488,-8.119692258400477,-0.3013448841875275,1.3558313060483356,9.75786465448583,0.001398442646362446,-0.000651292374374567,-0.001090830782496456,-7.89827830695933,1.045830906894467,-63.5
1772311547.917056,-3.0833468686784626,1.0639098645032488,-8.119692258400477,-0.2977744227447023,1.3546246835210785,9.755233839706372,-0.00037357513599393954,0.0010248675103685064,0.0,-7.89827830695933,1.045830906894467,-63.5
1772311547.9538586,-3.0833468686784626,1.0639098645032488,-8.119692258400477,-0.2996867463366669,1.355818925009219,9.75348306185877,-0.0006512923743745669,-0.001398442646362446,-0.002181661564992912,-7.9098275461332905,2.172506488006663,-64.25
1772311547.9843316,-3.0833468686784626,1.0639098645032488,-8.119692258400477,-0.3041022068744002,1.3554680841308628,9.745627715344023,0.0016761598847430733,0.0017720177823563855,0.002181661564992912,-7.9098275461332905,2.172506488006663,-64.25
1772311548.0331025,-3.0833468686784626,1.0639098645032488,-8.119692258400477,-0.30818624178649767,1.3583774339948014,9.740400069988429,0.0010248675103685064,0.00037357513599393954,0.001090830782496456,-7.160677794311543,0.11728608635981817,-63.5
1772311548.059593,-3.0833468686784626,1.0639098645032488,-8.119692258400477,-0.3066156956013423,1.358316338528512,9.743611353815544,0.0,0.0,0.0,-7.160677794311543,0.11728608635981817,-63.5
1772311548.0819986,-3.0833468686784626,1.0639098645032488,-8.119692258400477,-0.30671610990743375,1.3614185107275125,9.745748427330097,-0.0007471502719878791,0.002049735020737013,0.0,-8.17653392906455,1.8091984846490092,-64.0
1772311548.110493,-3.0833468686784626,1.0639098645032488,-8.119692258400477,-0.30992576505577146,1.3623373764242515,9.74382551417404,-0.00037357513599393954,0.0010248675103685064,0.0,-8.17653392906455,1.8091984846490092,-64.0
1772311548.1365354,-3.0833468686784626,1.0639098645032488,-8.119692258400477,-0.30992576505577146,1.3623373764242515,9.74382551417404,-0.00037357513599393954,0.0010248675103685064,0.0,-8.17653392906455,1.8091984846490092,-64.0
1772311548.1533642,-3.0833468686784626,1.0639098645032488,-8.119692258400477,-0.3120617547027929,1.3629488712810287,9.74254583694903,-0.002049735020737013,-0.0007471502719878791,-0.001090830782496456,-8.17653392906455,1.8091984846490092,-64.0
1772311548.173198,-3.0833468686784626,1.0639098645032488,-8.119692258400477,-0.3120617547027929,1.3629488712810287,9.74254583694903,-0.002049735020737013,-0.0007471502719878791,-0.001090830782496456,-8.17653392906455,1.8091984846490092,-64.0
1772311548.2056098,-3.0833468686784626,1.0639098645032488,-8.119692258400477,-0.31252123309425905,1.358392281123382,9.745591577451771,-0.00037357513599393954,0.0010248675103685064,0.0,-7.674380481275027,1.5265800760605115,-64.25
1772311548.2380433,-3.0833468686784626,1.0639098645032488,-8.119692258400477,-0.31252123309425905,1.358392281123382,9.745591577451771,-0.00037357513599393954,0.0010248675103685064,0.0,-7.674380481275027,1.5265800760605115,-64.25
1772311548.2736473,-3.0833468686784626,1.0639098645032488,-8.119692258400477,-0.31149781919280467,1.354037793329232,9.75041135574678,0.0010248675103685064,0.00037357513599393954,0.0,-7.89827830695933,1.045830906894467,-63.5
1772311548.3044624,-3.0833468686784626,1.0639098645032488,-8.119692258400477,-0.3076739181243341,1.352285525593203,9.753618864361655,0.0010248675103685064,0.00037357513599393954,0.002181661564992912,-7.89827830695933,1.045830906894467,-63.5
1772311548.3388982,-3.0833468686784626,1.0639098645032488,-8.119692258400477,-0.3051291546790407,1.351119410988989,9.752408313807319,-0.00037357513599393954,0.0010248675103685064,-0.001090830782496456,-6.899463664346524,0.6781601170535365,-64.0
1772311548.368235,-3.0833468686784626,1.0639098645032488,-8.119692258400477,-0.3034356430330682,1.350343374746238,9.751602705936143,-0.001398442646362446,0.000651292374374567,0.0,-6.899463664346524,0.6781601170535365,-64.0
1772311548.3968225,-3.0833468686784626,1.0639098645032488,-8.119692258400477,-0.3034356430330682,1.350343374746238,9.751602705936143,-0.001398442646362446,0.000651292374374567,0.0,-6.899463664346524,0.6781601170535365,-64.0
1772311548.4291682,-3.0833468686784626,1.0639098645032488,-8.119692258400477,-0.2991657994011031,1.3509725265437422,9.747721471189786,0.002145592918350325,-0.00270102739511158,0.0,-7.89827830695933,1.045830906894467,-63.0625
1772311548.4559855,-3.0833468686784626,1.0639098645032488,-8.119692258400477,-0.2974698614094709,1.3545340505862302,9.751828776236957,0.0006512923743745669,0.001398442646362446,0.0,-7.89827830695933,1.045830906894467,-63.0625
1772311548.4878047,-3.0833468686784626,1.0639098645032488,-8.119692258400477,-0.2974698614094709,1.3545340505862302,9.751828776236957,0.0006512923743745669,0.001398442646362446,0.0,-7.89827830695933,1.045830906894467,-63.0625
1772311548.526605,-3.0833468686784626,1.0639098645032488,-8.119692258400477,-0.2974868288690704,1.3600470356010108,9.754562141864245,0.002049735020737013,0.0007471502719878791,0.001090830782496456,-7.824210431639377,1.9376241563898806,-64.375
1772311548.543083,-3.0833468686784626,1.0639098645032488,-8.119692258400477,-0.30064095107322997,1.3625702702961073,9.75638116615551,-0.0006512923743745669,-0.001398442646362446,0.0,-7.824210431639377,1.9376241563898806,-64.375
1772311548.5875144,-3.0833468686784626,1.0639098645032488,-8.119692258400477,-0.30273998416624454,1.3642494547993158,9.757591706501515,-0.00037357513599393954,0.0010248675103685064,0.0,-8.15949243692435,0.4849568762007485,-63.5
1772311548.6324937,-3.0833468686784626,1.0639098645032488,-8.119692258400477,-0.30273998416624454,1.3642494547993158,9.757591706501515,-0.00037357513599393954,0.0010248675103685064,0.0,-8.15949243692435,0.4849568762007485,-63.5
1772311548.6587849,-3.0833468686784626,1.0639098645032488,-8.119692258400477,-0.30184567674558577,1.359081272229811,9.745016860749882,-0.00037357513599393954,0.0010248675103685064,0.002181661564992912,-8.15949243692435,0.4849568762007485,-63.5
1772311548.6860754,-3.0833468686784626,1.0639098645032488,-8.119692258400477,-0.3012505251472058,1.3556419044621875,9.7366484413724,-0.002796885292724892,0.001302584748749134,0.001090830782496456,-8.309322387288699,0.8960009565301175,-63.0625
1772311548.7190075,-3.0833468686784626,1.0639098645032488,-8.119692258400477,-0.3008544584067629,1.3533530436330894,9.737769575172695,-9.58578976133123e-05,0.003448177667099459,0.001090830782496456,-8.309322387288699,0.8960009565301175,-63.0625
1772311548.7537217,-3.0833468686784626,1.0639098645032488,-8.119692258400477,-0.30173647566351547,1.3549726628689105,9.738515677192908,-9.58578976133123e-05,0.003448177667099459,-0.001090830782496456,-8.15949243692435,0.4849568762007485,-63.5
1772311548.7769475,-3.0833468686784626,1.0639098645032488,-8.119692258400477,-0.30173647566351547,1.3549726628689105,9.738515677192908,-9.58578976133123e-05,0.003448177667099459,-0.001090830782496456,-8.15949243692435,0.4849568762007485,-63.5
1772311548.7986279,-3.0833468686784626,1.0639098645032488,-8.119692258400477,-0.30346904354326804,1.3591933319273521,9.742357311460172,0.00037357513599393954,-0.0010248675103685064,0.0,-8.15949243692435,0.4849568762007485,-63.5
1772311548.8143787,-3.0833468686784626,1.0639098645032488,-8.119692258400477,-0.304622048113192,1.3620021400377824,9.74156876444385,-0.00037357513599393954,0.0010248675103685064,-0.001090830782496456,-8.15949243692435,0.4849568762007485,-63.5
1772311548.8278947,-3.0833468686784626,1.0639098645032488,-8.119692258400477,-0.304622048113192,1.3620021400377824,9.74156876444385,-0.00037357513599393954,0.0010248675103685064,-0.001090830782496456,-8.15949243692435,0.4849568762007485,-63.5
1772311548.8419218,-3.0833468686784626,1.0639098645032488,-8.119692258400477,-0.30309816927824745,1.3575857093601613,9.737698883505816,0.0006512923743745669,0.001398442646362446,0.0,-8.17653392906455,1.8091984846490092,-62.75
1772311548.8607209,-3.0833468686784626,1.0639098645032488,-8.119692258400477,-0.30522687548576893,1.3535010288308056,9.735123520970957,0.0006512923743745669,0.001398442646362446,-0.001090830782496456,-8.17653392906455,1.8091984846490092,-62.75
1772311548.9151697,-3.0833468686784626,1.0639098645032488,-8.119692258400477,-0.30522687548576893,1.3535010288308056,9.735123520970957,0.0006512923743745669,0.001398442646362446,-0.001090830782496456,-8.17653392906455,1.8091984846490092,-62.75
1772311548.9519475,-3.0833468686784626,1.0639098645032488,-8.119692258400477,-0.3097863362370031,1.3496371243192287,9.74009986938733,0.0017720177823563855,-0.0016761598847430735,0.0,-8.026703978700201,1.39815440431964,-63.0625
1772311548.9682317,-3.0833468686784626,1.0639098645032488,-8.119692258400477,-0.3139662016825976,1.3502085695787507,9.746756685376294,0.002049735020737013,0.0007471502719878791,0.0,-8.026703978700201,1.39815440431964,-63.0625
1772311549.0240371,-3.0833468686784626,1.0639098645032488,-8.119692258400477,-0.3104621943458141,1.3528800505118248,9.751186722055442,0.00037357513599393954,-0.0010248675103685064,-0.001090830782496456,-8.58757800939392,1.6593685342846598,-65.0625
1772311549.043576,-3.0833468686784626,1.0639098645032488,-8.119692258400477,-0.3081303166055114,1.3546578912303884,9.754134861978661,0.0006512923743745669,0.001398442646362446,0.003272492347489368,-8.58757800939392,1.6593685342846598,-65.0625
1772311549.0790637,-3.0833468686784626,1.0639098645032488,-8.119692258400477,-0.3081303166055114,1.3546578912303884,9.754134861978661,0.0006512923743745669,0.001398442646362446,0.003272492347489368,-8.58757800939392,1.6593685342846598,-65.0625
1772311549.1281984,-3.0833468686784626,1.0639098645032488,-8.119692258400477,-0.30772407326628304,1.3589838549181452,9.752751704457365,-0.0007471502719878791,0.002049735020737013,0.001090830782496456,-8.309322387288699,0.8960009565301175,-64.375
1772311549.168256,-3.0833468686784626,1.0639098645032488,-8.119692258400477,-0.31059655341139714,1.3607171401800047,9.751831228577824,0.0010248675103685064,0.00037357513599393954,-0.001090830782496456,-8.309322387288699,0.8960009565301175,-64.375
1772311549.2078218,-3.0833468686784626,1.0639098645032488,-8.119692258400477,-0.3113625616121029,1.3587277916103722,9.74787355045506,-0.0014943005439757582,0.004099470041474026,0.0,-8.544204718905481,0.8103838420362035,-63.5625
1772311549.2333403,-3.0833468686784626,1.0639098645032488,-8.119692258400477,-0.3118723315128003,1.3574039023597615,9.74523975987452,-0.001398442646362446,0.000651292374374567,-0.001090830782496456,-8.544204718905481,0.8103838420362035,-63.5625
1772311549.2610135,-3.0833468686784626,1.0639098645032488,-8.119692258400477,-0.31221157768721153,1.356522868852292,9.75017722507918,0.00027771723838062733,0.0024233101567309526,0.001090830782496456,-8.544204718905481,0.8103838420362035,-63.5625
1772311549.2801063,-3.0833468686784626,1.0639098645032488,-8.119692258400477,-0.31221157768721153,1.356522868852292,9.75017722507918,0.00027771723838062733,0.0024233101567309526,0.001090830782496456,-8.544204718905481,0.8103838420362035,-63.5625
1772311549.3213856,-3.0833468686784626,1.0639098645032488,-8.119692258400477,-0.3124373422266541,1.35593655089486,9.753463053017779,0.0,0.0,0.001090830782496456,-7.748448356594981,0.634786826565098,-63.0625
1772311549.3562846,-3.0833468686784626,1.0639098645032488,-8.119692258400477,-0.30944475545636285,1.3566919580919516,9.755649734805814,0.00027771723838062733,0.0024233101567309526,0.0,-7.748448356594981,0.634786826565098,-63.0625
1772311549.3722575,-3.0833468686784626,1.0639098645032488,-8.119692258400477,-0.30944475545636285,1.3566919580919516,9.755649734805814,0.00027771723838062733,0.0024233101567309526,0.0,-7.748448356594981,0.634786826565098,-63.0625
1772311549.3960829,-3.0833468686784626,1.0639098645032488,-8.119692258400477,-0.3085988176382807,1.3603375036925,9.753759835401597,-0.001398442646362446,0.000651292374374567,0.0,-7.413166351310008,2.08745410675423,-63.0625
1772311549.4372783,-3.0833468686784626,1.0639098645032488,-8.119692258400477,-0.3080358554700916,1.3627635735662524,9.75250212845965,-0.001398442646362446,0.000651292374374567,-0.001090830782496456,-7.413166351310008,2.08745410675423,-63.0625
1772311549.474005,-3.0833468686784626,1.0639098645032488,-8.119692258400477,-0.3080358554700916,1.3627635735662524,9.75250212845965,-0.001398442646362446,0.000651292374374567,-0.001090830782496456,-7.413166351310008,2.08745410675423,-63.0625
1772311549.5203488,-3.0833468686784626,1.0639098645032488,-8.119692258400477,-0.30741188835064015,1.3654525425880653,9.751108131097082,0.00037357513599393954,-0.0010248675103685064,0.001090830782496456,-8.309322387288699,0.8960009565301175,-63.5
1772311549.5387628,-3.0833468686784626,1.0639098645032488,-8.119692258400477,-0.30741188835064015,1.3654525425880653,9.751108131097082,0.00037357513599393954,-0.0010248675103685064,0.001090830782496456,-8.309322387288699,0.8960009565301175,-63.5
1772311549.5566106,-157.62614539648303,-52.45967256914113,167.3374230103498,-0.3061003720398737,1.3630247442631875,9.750737448866472,0.0017720177823563855,-0.0016761598847430735,0.0,-8.309322387288699,0.8960009565301175,-63.5
1772311549.5839257,-3.0833468686784626,1.0639098645032488,-8.119692258400477,-0.3063731678338178,1.364551902147601,9.750490763982793,-0.0010248675103685064,-0.00037357513599393954,-0.001090830782496456,-7.89827830695933,1.045830906894467,-62.75
1772311549.6259134,-3.0833468686784626,1.0639098645032488,-8.119692258400477,-0.3034118798380238,1.3667138039083686,9.750326597948355,0.00037357513599393954,-0.0010248675103685064,0.001090830782496456,-7.89827830695933,1.045830906894467,-62.75
1772311549.6947973,-3.0833468686784626,1.0639098645032488,-8.119692258400477,-0.30144117575657725,1.3681525253801343,9.753562458993612,-0.0006512923743745669,-0.001398442646362446,0.0,-6.985080778840438,0.9130424486703188,-63.0625
1772311549.749275,-3.0833468686784626,1.0639098645032488,-8.119692258400477,-0.3032725247539167,1.3679643831998605,9.759061000079612,0.0007471502719878791,-0.002049735020737013,-0.001090830782496456,-6.985080778840438,0.9130424486703188,-63.0625
1772311549.7755911,-3.0833468686784626,1.0639098645032488,-8.119692258400477,-0.30334567180597544,1.3646963461312391,9.762720217749617,-0.0010248675103685064,-0.00037357513599393954,0.0,-7.263336400945659,1.676410026424861,-63.0625
1772311549.803115,-3.0833468686784626,1.0639098645032488,-8.119692258400477,-0.30339435035201434,1.3625215039684377,9.758465162818228,0.0007471502719878791,-0.002049735020737013,-0.001090830782496456,-7.263336400945659,1.676410026424861,-63.0625
1772311549.8405144,-3.0833468686784626,1.0639098645032488,-8.119692258400477,-0.30339435035201434,1.3625215039684377,9.758465162818228,0.0007471502719878791,-0.002049735020737013,-0.001090830782496456,-7.263336400945659,1.676410026424861,-63.0625
1772311549.8672643,-3.0833468686784626,1.0639098645032488,-8.119692258400477,-0.3034267453806283,1.361074170803672,9.752288359586146,0.0006512923743745669,0.001398442646362446,0.0,-7.396124859169807,0.7632124983059694,-62.75
1772311549.8864648,-3.0833468686784626,1.0639098645032488,-8.119692258400477,-0.3034267453806283,1.361074170803672,9.752288359586146,0.0006512923743745669,0.001398442646362446,0.0,-7.396124859169807,0.7632124983059694,-62.75
1772311549.9215744,-3.0833468686784626,1.0639098645032488,-8.119692258400477,-0.30344830391029465,1.3601109867502912,9.74817776603461,0.0011207254079818186,-0.00307460253110552,0.0,-7.396124859169807,0.7632124983059694,-62.75
1772311549.9577246,-3.0833468686784626,1.0639098645032488,-8.119692258400477,-0.3046082461191251,1.3626128290715724,9.7454422119444,-0.00037357513599393954,0.0010248675103685064,0.002181661564992912,-8.026703978700201,1.39815440431964,-64.0
1772311549.9745183,-3.0833468686784626,1.0639098645032488,-8.119692258400477,-0.3065257699498603,1.3674206077383104,9.750311954670146,-0.0010248675103685064,-0.00037357513599393954,0.001090830782496456,-8.026703978700201,1.39815440431964,-64.0
1772311549.9999883,-3.0833468686784626,1.0639098645032488,-8.119692258400477,-0.3046590300897347,1.3717657259827796,9.75355271405554,0.0011207254079818186,-0.00307460253110552,0.0,-8.026703978700201,1.39815440431964,-64.0
1772311550.0226839,-3.0833468686784626,1.0639098645032488,-8.119692258400477,-0.3046590300897347,1.3717657259827796,9.75355271405554,0.0011207254079818186,-0.00307460253110552,0.0,-8.026703978700201,1.39815440431964,-64.0
1772311550.0432358,-3.0833468686784626,1.0639098645032488,-8.119692258400477,-0.30341673556567167,1.3746573536363227,9.755709403224865,0.00037357513599393954,-0.0010248675103685064,0.002181661564992912,-6.985080778840438,0.9130424486703188,-64.0
1772311550.0610902,-3.0833468686784626,1.0639098645032488,-8.119692258400477,-0.30029881194092295,1.370296038439488,9.760489767482573,0.0,0.0,0.003272492347489368,-6.985080778840438,0.9130424486703188,-64.0
1772311550.0900302,-3.0833468686784626,1.0639098645032488,-8.119692258400477,-0.29936946384630364,1.3705364624444127,9.76367104649591,0.0,0.0,0.002181661564992912,-6.985080778840438,0.9130424486703188,-64.0
1772311550.1188552,-3.0833468686784626,1.0639098645032488,-8.119692258400477,-0.29875099307083297,1.3706964619339779,9.759097928727432,-0.002796885292724892,0.001302584748749134,0.002181661564992912,-8.15949243692435,0.4849568762007485,-62.75
1772311550.1328278,-3.0833468686784626,1.0639098645032488,-8.119692258400477,-0.3014822382278636,1.3696573445588103,9.756054569937582,-0.0006512923743745669,-0.001398442646362446,0.0,-8.15949243692435,0.4849568762007485,-62.75
1772311550.1542706,-3.0833468686784626,1.0639098645032488,-8.119692258400477,-0.3014822382278636,1.3696573445588103,9.756054569937582,-0.0006512923743745669,-0.001398442646362446,0.0,-8.15949243692435,0.4849568762007485,-62.75
1772311550.182012,-3.0833468686784626,1.0639098645032488,-8.119692258400477,-0.3032998513698599,1.3689658235533377,9.754029248659483,-0.0007471502719878791,0.002049735020737013,0.003272492347489368,-8.15949243692435,0.4849568762007485,-62.75
1772311550.2273414,-3.0833468686784626,1.0639098645032488,-8.119692258400477,-0.3032998513698599,1.3689658235533377,9.754029248659483,0.00037357513599393954,-0.0010248675103685064,0.002181661564992912,-7.413166351310008,2.08745410675423,-63.5
1772311550.2524638,-3.0833468686784626,1.0639098645032488,-8.119692258400477,-0.3033638573636273,1.3653627934996564,9.752681419973229,-0.0006512923743745669,-0.001398442646362446,0.0,-7.413166351310008,2.08745410675423,-63.5
1772311550.273726,-3.0833468686784626,1.0639098645032488,-8.119692258400477,-0.3033638573636273,1.3653627934996564,9.752681419973229,-0.0006512923743745669,-0.001398442646362446,0.0,-7.413166351310008,2.08745410675423,-63.5
1772311550.3129284,-3.0833468686784626,1.0639098645032488,-8.119692258400477,-0.29911802683998856,1.3609677819462414,9.75178445503876,0.0007471502719878791,-0.002049735020737013,0.001090830782496456,-8.026703978700201,1.39815440431964,-63.5
1772311550.3507557,-3.0833468686784626,1.0639098645032488,-8.119692258400477,-0.2962924740555417,1.3580429508529395,9.754532646601945,-0.001398442646362446,0.000651292374374567,-0.001090830782496456,-8.026703978700201,1.39815440431964,-63.5
1772311550.370639,-3.0833468686784626,1.0639098645032488,-8.119692258400477,-0.29441210024098496,1.3560965084328511,9.756361537387933,-0.001398442646362446,0.000651292374374567,0.0,-8.026703978700201,1.39815440431964,-63.5
1772311550.392576,-3.0833468686784626,1.0639098645032488,-8.119692258400477,-0.2985947535182084,1.359941238595977,9.75423353206864,0.00037357513599393954,-0.0010248675103685064,0.0,-8.026703978700201,1.39815440431964,-63.5
1772311550.4286687,-3.0833468686784626,1.0639098645032488,-8.119692258400477,-0.30137826255090205,1.3624998635710874,9.752817368300029,-0.0024233101567309526,0.00027771723838062744,0.003272492347489368,-8.673195123887833,1.8942508659014419,-63.0625
1772311550.4564667,-3.0833468686784626,1.0639098645032488,-8.119692258400477,-0.30323065671832644,1.3642025999103098,9.751874927131603,0.00037357513599393954,-0.0010248675103685064,0.001090830782496456,-8.673195123887833,1.8942508659014419,-63.0625
1772311550.473125,-3.0833468686784626,1.0639098645032488,-8.119692258400477,-0.30323065671832644,1.3642025999103098,9.751874927131603,0.00037357513599393954,-0.0010248675103685064,0.001090830782496456,-8.673195123887833,1.8942508659014419,-63.0625
1772311550.5063787,-3.0833468686784626,1.0639098645032488,-8.119692258400477,-0.30331780909598666,1.362192921373916,9.751247743061773,0.0006512923743745669,0.001398442646362446,0.0,-8.026703978700201,1.39815440431964,-63.5
1772311550.5444307,-3.0833468686784626,1.0639098645032488,-8.119692258400477,-0.3033758080297637,1.3608555027575258,9.750830359069408,0.00037357513599393954,-0.0010248675103685064,0.0,-8.026703978700201,1.39815440431964,-63.5
1772311550.589656,-3.0833468686784626,1.0639098645032488,-8.119692258400477,-0.3033758080297637,1.3608555027575258,9.750830359069408,0.00037357513599393954,-0.0010248675103685064,0.0,-8.026703978700201,1.39815440431964,-63.5
1772311550.6145656,-3.0833468686784626,1.0639098645032488,-8.119692258400477,-0.3054116409734749,1.355677039810766,9.750552594684972,0.0,0.0,0.0,-8.309322387288699,0.8960009565301175,-64.0
1772311550.6332083,-3.0833468686784626,1.0639098645032488,-8.119692258400477,-0.30362363450643554,1.3533764258150809,9.750367745589962,0.001398442646362446,-0.000651292374374567,0.001090830782496456,-8.309322387288699,0.8960009565301175,-64.0
1772311550.6574342,-3.0833468686784626,1.0639098645032488,-8.119692258400477,-0.3035793314241238,1.3549882234498298,9.750244730582132,0.001398442646362446,-0.000651292374374567,0.0,-8.309322387288699,0.8960009565301175,-64.0
1772311550.6835697,-3.0833468686784626,1.0639098645032488,-8.119692258400477,-0.3035793314241238,1.3549882234498298,9.750244730582132,0.001398442646362446,-0.000651292374374567,0.0,-8.309322387288699,0.8960009565301175,-64.0
1772311550.7155838,-3.0833468686784626,1.0639098645032488,-8.119692258400477,-0.30354984821774317,1.356060856770796,9.750162865468589,9.58578976133123e-05,-0.003448177667099459,-0.001090830782496456,-8.026703978700201,1.39815440431964,-64.25
1772311550.7428796,-3.0833468686784626,1.0639098645032488,-8.119692258400477,-0.30153299217207274,1.3610631080612967,9.75010838515002,-0.0006512923743745669,-0.001398442646362446,0.003272492347489368,-8.026703978700201,1.39815440431964,-64.25
1772311550.76868,-3.0833468686784626,1.0639098645032488,-8.119692258400477,-0.30153299217207274,1.3610631080612967,9.75010838515002,-0.0006512923743745669,-0.001398442646362446,0.003272492347489368,-8.026703978700201,1.39815440431964,-64.25
1772311550.8109329,-3.0833468686784626,1.0639098645032488,-8.119692258400477,-0.30218803230461044,1.3601036246188196,9.750072129106597,-0.00027771723838062733,-0.0024233101567309526,-0.001090830782496456,-8.309322387288699,0.8960009565301175,-63.5625
1772311550.8553443,-3.0833468686784626,1.0639098645032488,-8.119692258400477,-0.3037695494436985,1.3626079296553184,9.753393112822025,-0.0010248675103685064,-0.00037357513599393954,0.0,-8.309322387288699,0.8960009565301175,-63.5625
1772311550.8863866,-3.0833468686784626,1.0639098645032488,-8.119692258400477,-0.3068192667342307,1.3599860908846912,9.755603190386823,-0.0013025847487491337,-0.002796885292724892,0.0,-8.58757800939392,1.6593685342846598,-64.375
1772311550.9290848,-3.0833468686784626,1.0639098645032488,-8.119692258400477,-0.3088488195235056,1.3582412864706968,9.757073972318013,0.0,0.0,-0.001090830782496456,-8.58757800939392,1.6593685342846598,-64.375
1772311550.9556956,-3.0833468686784626,1.0639098645032488,-8.119692258400477,-0.31019946423317785,1.357080138623926,9.758052761263508,-0.002796885292724892,0.001302584748749134,0.001090830782496456,-8.43774805902957,1.2483244539552907,-64.0
1772311550.9757683,-3.0833468686784626,1.0639098645032488,-8.119692258400477,-0.31019946423317785,1.357080138623926,9.758052761263508,-0.002796885292724892,0.001302584748749134,0.001090830782496456,-8.43774805902957,1.2483244539552907,-64.0
1772311551.0171545,-3.0833468686784626,1.0639098645032488,-8.119692258400477,-0.30795547265043965,1.3574530029509333,9.758704134372946,0.0006512923743745669,0.001398442646362446,0.0,-8.43774805902957,1.2483244539552907,-64.0
1772311551.0441408,-3.0833468686784626,1.0639098645032488,-8.119692258400477,-0.3033192907698207,1.3588467352435512,9.755792504193645,0.0006512923743745669,0.001398442646362446,0.0,-7.824210431639377,1.9376241563898806,-63.0625
1772311551.0709026,-3.0833468686784626,1.0639098645032488,-8.119692258400477,-0.30252515401413776,1.3660599096139485,9.75385484683436,0.0,0.0,0.001090830782496456,-7.824210431639377,1.9376241563898806,-63.0625
1772311551.108875,-3.0833468686784626,1.0639098645032488,-8.119692258400477,-0.2997054743779956,1.3645745354823404,9.752565357506805,0.00027771723838062733,0.0024233101567309526,0.001090830782496456,-7.824210431639377,1.9376241563898806,-63.0625
1772311551.1535895,-3.0833468686784626,1.0639098645032488,-8.119692258400477,-0.3009718396273635,1.3624404403423098,9.755052328471177,-0.0007471502719878791,0.002049735020737013,-0.002181661564992912,-6.899463664346524,0.6781601170535365,-64.0
1772311551.1879084,-3.0833468686784626,1.0639098645032488,-8.119692258400477,-0.3018145915545911,1.361020223866024,9.75670737986668,-0.0007471502719878791,0.002049735020737013,0.003272492347489368,-6.899463664346524,0.6781601170535365,-64.0
1772311551.245193,-3.0833468686784626,1.0639098645032488,-8.119692258400477,-0.3023754335480051,1.3600750856659134,9.751118574667615,0.001398442646362446,-0.000651292374374567,-0.002181661564992912,-7.662831242101067,0.3999044949483157,-63.0625
1772311551.2757246,-3.0833468686784626,1.0639098645032488,-8.119692258400477,-0.3027486676296066,1.3594461067516252,9.74739928723868,0.00037357513599393954,-0.0010248675103685064,0.001090830782496456,-7.662831242101067,0.3999044949483157,-63.0625
1772311551.3133557,-3.0833468686784626,1.0639098645032488,-8.119692258400477,-0.30613988129094966,1.3578819330621594,9.748269254709207,0.0007471502719878791,-0.002049735020737013,-0.001090830782496456,-7.545954809534156,1.1742565786353383,-63.5
1772311551.36372,-3.0833468686784626,1.0639098645032488,-8.119692258400477,-0.30613988129094966,1.3578819330621594,9.748269254709207,0.0007471502719878791,-0.002049735020737013,-0.001090830782496456,-7.545954809534156,1.1742565786353383,-63.5
1772311551.3900056,-3.0833468686784626,1.0639098645032488,-8.119692258400477,-0.3083966961002347,1.3568409929447849,9.755538431757307,0.00037357513599393954,-0.0010248675103685064,0.0,-7.545954809534156,1.1742565786353383,-63.5
1772311551.4199767,-3.0833468686784626,1.0639098645032488,-8.119692258400477,-0.30989858114554064,1.3561482589247351,9.753685764466152,0.001398442646362446,-0.000651292374374567,0.0,-8.17653392906455,1.8091984846490092,-64.375
1772311551.464142,-3.0833468686784626,1.0639098645032488,-8.119692258400477,-0.31089806886603644,1.355687252172738,9.752452835079538,-0.0010248675103685064,-0.00037357513599393954,0.001090830782496456,-8.17653392906455,1.8091984846490092,-64.375
1772311551.4798026,-3.0833468686784626,1.0639098645032488,-8.119692258400477,-0.312708812027179,1.358523287878402,9.74494211093083,0.00037357513599393954,-0.0010248675103685064,-0.001090830782496456,-7.134910729204788,1.3240865289996877,-63.5625
1772311551.529429,-3.0833468686784626,1.0639098645032488,-8.119692258400477,-0.3076281802749227,1.3627018284562504,9.74663403132479,-0.0010248675103685064,-0.00037357513599393954,0.001090830782496456,-7.134910729204788,1.3240865289996877,-63.5625
1772311551.544499,-3.0833468686784626,1.0639098645032488,-8.119692258400477,-0.3076281802749227,1.3627018284562504,9.74663403132479,-0.0010248675103685064,-0.00037357513599393954,0.001090830782496456,-7.134910729204788,1.3240865289996877,-63.5625
1772311551.564532,-3.0833468686784626,1.0639098645032488,-8.119692258400477,-0.3031014813500095,1.3623397699841169,9.747759985446981,0.0013025847487491337,0.002796885292724892,0.0,-7.134910729204788,1.3240865289996877,-63.5625
1772311551.6172786,-3.0833468686784626,1.0639098645032488,-8.119692258400477,-0.30008901378202013,1.3620988241153702,9.748509295337568,0.0006512923743745669,0.001398442646362446,-0.001090830782496456,-7.545954809534156,1.1742565786353383,-65.0625
1772311551.645429,-3.0833468686784626,1.0639098645032488,-8.119692258400477,-0.30122708081632593,1.360792882083099,9.749007952699413,-0.001398442646362446,0.000651292374374567,0.0,-7.545954809534156,1.1742565786353383,-65.0625
1772311551.6888723,-3.0833468686784626,1.0639098645032488,-8.119692258400477,-0.29884162116527957,1.361069387497113,9.745994691896035,0.00027771723838062733,0.0024233101567309526,0.001090830782496456,-7.824210431639377,1.9376241563898806,-64.25
1772311551.7351727,-3.0833468686784626,1.0639098645032488,-8.119692258400477,-0.29725412441483856,1.3612533987613715,9.743989400491715,-0.00037357513599393954,0.0010248675103685064,0.0,-7.824210431639377,1.9376241563898806,-64.25
1772311551.7510812,-3.0833468686784626,1.0639098645032488,-8.119692258400477,-0.29725412441483856,1.3612533987613715,9.743989400491715,-0.00037357513599393954,0.0010248675103685064,0.0,-7.824210431639377,1.9376241563898806,-64.25
1772311551.7716541,-3.0833468686784626,1.0639098645032488,-8.119692258400477,-0.2961976630609207,1.361375856202195,9.742654901462712,0.001398442646362446,-0.000651292374374567,-0.001090830782496456,-7.824210431639377,1.9376241563898806,-64.75
1772311551.8019166,-3.0833468686784626,1.0639098645032488,-8.119692258400477,-0.2961976630609207,1.361375856202195,9.742654901462712,0.001398442646362446,-0.000651292374374567,-0.001090830782496456,-7.824210431639377,1.9376241563898806,-64.75
1772311551.8279078,-3.0833468686784626,1.0639098645032488,-8.119692258400477,-0.29549459983133497,1.3614573502611236,9.745111918973562,0.00027771723838062733,0.0024233101567309526,0.001090830782496456,-7.824210431639377,1.9376241563898806,-64.75
1772311551.853275,-3.0833468686784626,1.0639098645032488,-8.119692258400477,-0.2950267191057765,1.3615115836469924,9.746747036680349,0.0,0.0,0.0,-7.263336400945659,1.676410026424861,-64.375
1772311551.8747172,-3.0833468686784626,1.0639098645032488,-8.119692258400477,-0.2950267191057765,1.3615115836469924,9.746747036680349,0.0,0.0,0.0,-7.263336400945659,1.676410026424861,-64.375
1772311551.9142008,-3.0833468686784626,1.0639098645032488,-8.119692258400477,-0.2976509674038164,1.3604260987427768,9.751904454334886,0.00037357513599393954,-0.0010248675103685064,-0.002181661564992912,-7.545954809534156,1.1742565786353383,-64.25
1772311551.957617,-3.0833468686784626,1.0639098645032488,-8.119692258400477,-0.2996045881863939,1.3596797020332048,9.751267393085717,-0.0010248675103685064,-0.00037357513599393954,-0.001090830782496456,-7.545954809534156,1.1742565786353383,-64.25
1772311551.983972,-3.0833468686784626,1.0639098645032488,-8.119692258400477,-0.2996045881863939,1.3596797020332048,9.751267393085717,-0.0010248675103685064,-0.00037357513599393954,-0.001090830782496456,-7.545954809534156,1.1742565786353383,-64.25
1772311552.0259433,-3.0833468686784626,1.0639098645032488,-8.119692258400477,-0.30090470099382516,1.3591829833607825,9.754188547648155,0.0007471502719878791,-0.002049735020737013,0.001090830782496456,-7.263336400945659,1.676410026424861,-65.0625
1772311552.0674148,-3.0833468686784626,1.0639098645032488,-8.119692258400477,-0.302915506792121,1.3619952531823314,9.756132543378024,0.00027771723838062733,0.0024233101567309526,0.002181661564992912,-7.263336400945659,1.676410026424861,-65.0625
1772311552.0924056,-3.0833468686784626,1.0639098645032488,-8.119692258400477,-0.3031080803405523,1.360723956784125,9.757426250820396,-0.00037357513599393954,0.0010248675103685064,0.001090830782496456,-7.674380481275027,1.5265800760605115,-64.0
1772311552.1194892,-3.0833468686784626,1.0639098645032488,-8.119692258400477,-0.3031080803405523,1.360723956784125,9.757426250820396,-0.00037357513599393954,0.0010248675103685064,0.001090830782496456,-7.674380481275027,1.5265800760605115,-64.0
1772311552.1419864,-3.0833468686784626,1.0639098645032488,-8.119692258400477,-0.30009340533651074,1.3610235184805917,9.758287198671635,0.002049735020737013,0.0007471502719878791,-0.001090830782496456,-7.674380481275027,1.5265800760605115,-64.0
1772311552.1569912,-3.0833468686784626,1.0639098645032488,-8.119692258400477,-0.2980871727974475,1.361222873443267,9.755515038141898,0.0017720177823563855,-0.0016761598847430735,-0.001090830782496456,-6.750198447223656,0.9986595631642328,-64.25
1772311552.180693,-3.0833468686784626,1.0639098645032488,-8.119692258400477,-0.2980871727974475,1.361222873443267,9.755515038141898,0.0017720177823563855,-0.0016761598847430735,-0.001090830782496456,-6.750198447223656,0.9986595631642328,-64.25
1772311552.2059412,-3.0833468686784626,1.0639098645032488,-8.119692258400477,-0.29675204745378675,1.3613555419439864,9.75367019627642,0.0006512923743745669,0.001398442646362446,-0.002181661564992912,-6.750198447223656,0.9986595631642328,-64.25
1772311552.223734,-3.0833468686784626,1.0639098645032488,-8.119692258400477,-0.29586353645190794,1.3614438313492112,9.752442474623178,-0.00037357513599393954,0.0010248675103685064,0.001090830782496456,-6.750198447223656,0.9986595631642328,-64.25
1772311552.2437003,-3.0833468686784626,1.0639098645032488,-8.119692258400477,-0.2995606681029728,1.363499822263304,9.744935216162858,0.00027771723838062733,0.0024233101567309526,0.0,-8.17653392906455,1.8091984846490092,-63.5
1772311552.2628782,-3.0833468686784626,1.0639098645032488,-8.119692258400477,-0.2995606681029728,1.363499822263304,9.744935216162858,0.00027771723838062733,0.0024233101567309526,0.0,-8.17653392906455,1.8091984846490092,-63.5
1772311552.2866435,-3.0833468686784626,1.0639098645032488,-8.119692258400477,-0.3008754726689279,1.361725230700374,9.746629442933724,-0.0007471502719878791,0.002049735020737013,0.001090830782496456,-8.17653392906455,1.8091984846490092,-63.5
1772311552.3126554,-3.0833468686784626,1.0639098645032488,-8.119692258400477,-0.3008754726689279,1.361725230700374,9.746629442933724,-0.0007471502719878791,0.002049735020737013,0.001090830782496456,-8.17653392906455,1.8091984846490092,-63.5
1772311552.3490224,-3.0833468686784626,1.0639098645032488,-8.119692258400477,-0.30309513583500164,1.3618498555454812,9.748507263252122,0.0,0.0,0.0,-7.89827830695933,1.045830906894467,-63.5
1772311552.3720288,-3.0833468686784626,1.0639098645032488,-8.119692258400477,-0.30309513583500164,1.3618498555454812,9.748507263252122,0.0,0.0,0.0,-7.89827830695933,1.045830906894467,-63.5
1772311552.4081156,-3.0833468686784626,1.0639098645032488,-8.119692258400477,-0.30008479091266643,1.361772791529161,9.749006600369249,0.0016761598847430733,0.0017720177823563855,0.0,-7.89827830695933,1.045830906894467,-63.5
1772311552.4453847,-3.0833468686784626,1.0639098645032488,-8.119692258400477,-0.2969358447464465,1.3585786757378264,9.749338903642736,0.0,0.0,0.001090830782496456,-7.824210431639377,1.9376241563898806,-63.5625
1772311552.469977,-3.0833468686784626,1.0639098645032488,-8.119692258400477,-0.29598585149702267,1.3595958579086396,9.746214936051851,-0.0017720177823563855,0.0016761598847430735,-0.001090830782496456,-7.824210431639377,1.9376241563898806,-63.5625
1772311552.4903147,-3.0833468686784626,1.0639098645032488,-8.119692258400477,-0.29598585149702267,1.3595958579086396,9.746214936051851,-0.0017720177823563855,0.0016761598847430735,-0.001090830782496456,-7.824210431639377,1.9376241563898806,-63.5625
1772311552.5223906,-3.0833468686784626,1.0639098645032488,-8.119692258400477,-0.29949916463190585,1.3602498164684287,9.740526307703451,0.0,0.0,-0.001090830782496456,-7.396124859169807,0.7632124983059694,-63.0625
1772311552.5718172,-3.0833468686784626,1.0639098645032488,-8.119692258400477,-0.2965461169984745,1.357565152847655,9.740350251897405,0.00270102739511158,0.002145592918350325,0.002181661564992912,-7.396124859169807,0.7632124983059694,-63.0625
1772311552.6083813,-3.0833468686784626,1.0639098645032488,-8.119692258400477,-0.2945808967861295,1.355778539197688,9.743578200432472,-0.0007471502719878791,0.002049735020737013,0.0,-7.674380481275027,1.5265800760605115,-62.75
1772311552.6437542,-3.0833468686784626,1.0639098645032488,-8.119692258400477,-0.2932730646877621,1.354589567771417,9.745726364124012,0.0011207254079818186,-0.00307460253110552,-0.001090830782496456,-7.674380481275027,1.5265800760605115,-62.75
1772311552.673237,-3.0833468686784626,1.0639098645032488,-8.119692258400477,-0.2955455475850754,1.3526527253207525,9.75050105477149,0.001398442646362446,-0.000651292374374567,-0.001090830782496456,-7.674380481275027,1.5265800760605115,-62.75
1772311552.7118182,-3.0833468686784626,1.0639098645032488,-8.119692258400477,-0.29705785956794023,1.3513637783057835,9.74364322293864,0.0,0.0,-0.002181661564992912,-7.396124859169807,0.7632124983059694,-64.25
1772311552.7348192,-3.0833468686784626,1.0639098645032488,-8.119692258400477,-0.29705785956794023,1.3513637783057835,9.74364322293864,0.0,0.0,-0.002181661564992912,-7.396124859169807,0.7632124983059694,-64.25
1772311552.750816,-3.0833468686784626,1.0639098645032488,-8.119692258400477,-0.29920988154706696,1.3536488290151383,9.742424524168198,0.0007471502719878791,-0.002049735020737013,0.002181661564992912,-7.396124859169807,0.7632124983059694,-64.25
1772311552.76863,-3.0833468686784626,1.0639098645032488,-8.119692258400477,-0.3006420281345151,1.3551695047365249,9.741613493750226,0.00037357513599393954,-0.0010248675103685064,-0.001090830782496456,-7.396124859169807,0.7632124983059694,-64.25
1772311552.8024702,-3.0833468686784626,1.0639098645032488,-8.119692258400477,-0.3006420281345151,1.3551695047365249,9.741613493750226,0.00037357513599393954,-0.0010248675103685064,-0.001090830782496456,-7.396124859169807,0.7632124983059694,-64.25
1772311552.8236947,-3.0833468686784626,1.0639098645032488,-8.119692258400477,-0.30159510569033626,1.3561814974420467,9.747763985481507,-0.0006512923743745669,-0.001398442646362446,0.001090830782496456,-8.43774805902957,1.2483244539552907,-63.0625
1772311552.8465466,-3.0833468686784626,1.0639098645032488,-8.119692258400477,-0.29794094235966423,1.3548577319816992,9.751857069023181,-0.0017720177823563855,0.0016761598847430735,0.001090830782496456,-8.43774805902957,1.2483244539552907,-63.0625
1772311552.864189,-3.0833468686784626,1.0639098645032488,-8.119692258400477,-0.29794094235966423,1.3548577319816992,9.751857069023181,-0.0017720177823563855,0.0016761598847430735,0.001090830782496456,-8.43774805902957,1.2483244539552907,-63.0625
1772311552.887454,-3.0833468686784626,1.0639098645032488,-8.119692258400477,-0.29550913748278107,1.3539767808552672,9.754580970397425,0.002796885292724892,-0.001302584748749134,0.0,-8.43774805902957,1.2483244539552907,-63.0625
1772311552.9080207,-3.0833468686784626,1.0639098645032488,-8.119692258400477,-0.29550913748278107,1.3539767808552672,9.754580970397425,0.002796885292724892,-0.001302584748749134,0.0,-8.43774805902957,1.2483244539552907,-63.0625
1772311552.9458323,-3.0833468686784626,1.0639098645032488,-8.119692258400477,-0.29710223778624406,1.3549976014561316,9.746457552832949,0.0006512923743745669,0.001398442646362446,0.0,-7.134910729204788,1.3240865289996877,-64.375
1772311552.9731371,-3.0833468686784626,1.0639098645032488,-8.119692258400477,-0.29710223778624406,1.3549976014561316,9.746457552832949,0.0006512923743745669,0.001398442646362446,0.0,-7.134910729204788,1.3240865289996877,-64.375
1772311553.017184,-3.0833468686784626,1.0639098645032488,-8.119692258400477,-0.30084522468908215,1.3507821055392073,9.742859891176906,0.0017720177823563855,-0.0016761598847430735,0.0,-7.89827830695933,1.045830906894467,-62.75
1772311553.0421424,-3.0833468686784626,1.0639098645032488,-8.119692258400477,-0.30084522468908215,1.3507821055392073,9.742859891176906,0.0017720177823563855,-0.0016761598847430735,0.0,-7.89827830695933,1.045830906894467,-62.75
1772311553.0592315,-3.0833468686784626,1.0639098645032488,-8.119692258400477,-0.3005847354793844,1.3501189017373572,9.741903225631154,0.0007471502719878791,-0.002049735020737013,0.001090830782496456,-7.134910729204788,1.3240865289996877,-64.0
1772311553.0870678,-3.0833468686784626,1.0639098645032488,-8.119692258400477,-0.3027025733165097,1.3559632081143682,9.73792146368979,0.001398442646362446,-0.000651292374374567,0.0,-7.134910729204788,1.3240865289996877,-64.0
1772311553.1830025,-3.0833468686784626,1.0639098645032488,-8.119692258400477,-0.3041119707393177,1.359852528723089,9.735271645597008,0.0017720177823563855,-0.0016761598847430735,-0.001090830782496456,-8.309322387288699,0.8960009565301175,-63.0625
1772311553.2388237,-3.0833468686784626,1.0639098645032488,-8.119692258400477,-0.30504990898019574,1.3624408281416347,9.740198444671307,-0.0017720177823563855,0.0016761598847430735,0.001090830782496456,-8.309322387288699,0.8960009565301175,-63.0625
1772311553.2598643,-3.0833468686784626,1.0639098645032488,-8.119692258400477,-0.30504990898019574,1.3624408281416347,9.740198444671307,-0.0017720177823563855,0.0016761598847430735,0.001090830782496456,-8.309322387288699,0.8960009565301175,-63.0625
1772311553.293441,-3.0833468686784626,1.0639098645032488,-8.119692258400477,-0.3045285011538813,1.3610204819421425,9.743477174419303,0.00037357513599393954,-0.0010248675103685064,-0.001090830782496456,-7.134910729204788,1.3240865289996877,-63.5625
1772311553.340121,-3.0833468686784626,1.0639098645032488,-8.119692258400477,-0.3073243406193113,1.3589296621645255,9.749004244148102,0.00027771723838062733,0.0024233101567309526,0.001090830782496456,-7.134910729204788,1.3240865289996877,-63.5625
1772311553.4083834,-3.0833468686784626,1.0639098645032488,-8.119692258400477,-0.3073243406193113,1.3589296621645255,9.749004244148102,0.00027771723838062733,0.0024233101567309526,0.001090830782496456,-7.134910729204788,1.3240865289996877,-63.5625
1772311553.4874935,-3.0833468686784626,1.0639098645032488,-8.119692258400477,-0.30803934530381966,1.3543954144091734,9.752682447311203,0.00037357513599393954,-0.0010248675103685064,-0.001090830782496456,-8.309322387288699,0.8960009565301175,-63.0625
1772311553.5503995,-3.0833468686784626,1.0639098645032488,-8.119692258400477,-0.3053723423848993,1.3525235184270148,9.755130250428024,0.00037357513599393954,-0.0010248675103685064,0.0,-8.309322387288699,0.8960009565301175,-63.0625
1772311553.6425455,-3.0833468686784626,1.0639098645032488,-8.119692258400477,-0.3058886722310564,1.3575634536600067,9.750069012643879,0.0,0.0,0.0,-8.58757800939392,1.6593685342846598,-63.0625
1772311553.676227,-3.0833468686784626,1.0639098645032488,-8.119692258400477,-0.30623228397589175,1.3609174742577974,9.74670081543626,-0.0010248675103685064,-0.00037357513599393954,0.0,-8.58757800939392,1.6593685342846598,-63.0625
1772311553.7309265,-3.0833468686784626,1.0639098645032488,-8.119692258400477,-0.30331812320434987,1.3642951327469242,9.751149541234456,0.0010248675103685064,0.00037357513599393954,0.0,-8.15949243692435,0.4849568762007485,-64.25
1772311553.791591,-3.0833468686784626,1.0639098645032488,-8.119692258400477,-0.3002331865160355,1.3634000961911852,9.754110118557634,0.0,0.0,0.001090830782496456,-8.15949243692435,0.4849568762007485,-64.25
1772311553.8436306,-3.0833468686784626,1.0639098645032488,-8.119692258400477,-0.3002331865160355,1.3634000961911852,9.754110118557634,0.0,0.0,0.001090830782496456,-8.15949243692435,0.4849568762007485,-64.25
1772311553.9293559,-3.0833468686784626,1.0639098645032488,-8.119692258400477,-0.2987219291857249,1.3676424188773344,9.754046404799661,0.0011207254079818186,-0.00307460253110552,-0.001090830782496456,-7.89827830695933,1.045830906894467,-62.75
1772311553.950279,-3.0833468686784626,1.0639098645032488,-8.119692258400477,-0.2987219291857249,1.3676424188773344,9.754046404799661,0.0011207254079818186,-0.00307460253110552,-0.001090830782496456,-7.89827830695933,1.045830906894467,-62.75
1772311553.989017,-3.0833468686784626,1.0639098645032488,-8.119692258400477,-0.2983200659876539,1.3687705082686723,9.749347725485551,0.00027771723838062733,0.0024233101567309526,-0.001090830782496456,-6.899463664346524,0.6781601170535365,-64.375
1772311554.0508878,-3.0833468686784626,1.0639098645032488,-8.119692258400477,-0.3000498658196168,1.3652328133595262,9.7462208068897,-0.0011207254079818186,0.00307460253110552,0.001090830782496456,-6.899463664346524,0.6781601170535365,-64.375
1772311554.0924997,-3.0833468686784626,1.0639098645032488,-8.119692258400477,-0.3000498658196168,1.3652328133595262,9.7462208068897,-0.0011207254079818186,0.00307460253110552,0.001090830782496456,-6.899463664346524,0.6781601170535365,-64.375
1772311554.1253939,-3.0833468686784626,1.0639098645032488,-8.119692258400477,-0.3012010282846579,1.362878516916131,9.74413987749413,-0.00037357513599393954,0.0010248675103685064,0.002181661564992912,-7.674380481275027,1.5265800760605115,-63.0625
1772311554.1494982,-3.0833468686784626,1.0639098645032488,-8.119692258400477,-0.30425830454213937,1.3675974200309362,9.742755042226882,-0.001398442646362446,0.000651292374374567,0.0,-7.674380481275027,1.5265800760605115,-63.0625
1772311554.1760561,-3.0833468686784626,1.0639098645032488,-8.119692258400477,-0.30629288773947977,1.3707377973402373,9.74852367324079,0.0006512923743745669,0.001398442646362446,0.001090830782496456,-7.674380481275027,1.5265800760605115,-63.5625
1772311554.2092237,-3.0833468686784626,1.0639098645032488,-8.119692258400477,-0.30629288773947977,1.3707377973402373,9.74852367324079,0.0006512923743745669,0.001398442646362446,0.001090830782496456,-7.674380481275027,1.5265800760605115,-63.5625
1772311554.22992,-3.0833468686784626,1.0639098645032488,-8.119692258400477,-0.3065012848813643,1.369684852809929,9.752362632740715,0.001398442646362446,-0.000651292374374567,-0.003272492347489368,-7.674380481275027,1.5265800760605115,-63.5625
1772311554.2622874,-3.0833468686784626,1.0639098645032488,-8.119692258400477,-0.3043487803550159,1.3626984688884998,9.754917417403927,-0.00037357513599393954,0.0010248675103685064,-0.001090830782496456,-8.673195123887833,1.8942508659014419,-63.5625
1772311554.305975,-3.0833468686784626,1.0639098645032488,-8.119692258400477,-0.3043487803550159,1.3626984688884998,9.754917417403927,-0.00037357513599393954,0.0010248675103685064,-0.001090830782496456,-8.673195123887833,1.8942508659014419,-63.5625
1772311554.351108,-3.0833468686784626,1.0639098645032488,-8.119692258400477,-0.30291631263778207,1.3580491084318105,9.753272486351161,-0.00037357513599393954,0.0010248675103685064,0.0,-8.673195123887833,1.8942508659014419,-63.5625
1772311554.3992271,-3.0833468686784626,1.0639098645032488,-8.119692258400477,-0.3032365927750508,1.3581302728690867,9.753675438116344,0.0016761598847430733,0.0017720177823563855,0.0,-8.17653392906455,1.8091984846490092,-64.375
1772311554.432425,-3.0833468686784626,1.0639098645032488,-8.119692258400477,-0.3032365927750508,1.3581302728690867,9.753675438116344,0.0016761598847430733,0.0017720177823563855,0.0,-8.17653392906455,1.8091984846490092,-64.375
1772311554.4674096,-3.0833468686784626,1.0639098645032488,-8.119692258400477,-0.3044673547235886,1.3612946861096547,9.755791074716413,-0.0007471502719878791,0.002049735020737013,-0.002181661564992912,-7.89827830695933,1.045830906894467,-64.0
1772311554.5112138,-3.0833468686784626,1.0639098645032488,-8.119692258400477,-0.3052864130518287,1.3634005677724403,9.75385389553323,0.0011207254079818186,-0.00307460253110552,-0.003272492347489368,-7.89827830695933,1.045830906894467,-64.0
1772311554.5401282,-3.0833468686784626,1.0639098645032488,-8.119692258400477,-0.3052864130518287,1.3634005677724403,9.75385389553323,0.0011207254079818186,-0.00307460253110552,-0.003272492347489368,-7.89827830695933,1.045830906894467,-64.0
1772311554.5806239,-3.0833468686784626,1.0639098645032488,-8.119692258400477,-0.3026886566704564,1.3659476037429468,9.75256472442653,0.0007471502719878791,-0.002049735020737013,0.002181661564992912,-6.985080778840438,0.9130424486703188,-64.0
1772311554.6331372,-3.0833468686784626,1.0639098645032488,-8.119692258400477,-0.30295711411866644,1.3633542019315659,9.751706795456007,0.0007471502719878791,-0.002049735020737013,-0.001090830782496456,-6.985080778840438,0.9130424486703188,-64.0
1772311554.657431,-3.0833468686784626,1.0639098645032488,-8.119692258400477,-0.30295711411866644,1.3633542019315659,9.751706795456007,0.0007471502719878791,-0.002049735020737013,-0.001090830782496456,-6.985080778840438,0.9130424486703188,-64.0
1772311554.6793013,-3.0833468686784626,1.0639098645032488,-8.119692258400477,-0.3011385342504109,1.3659167477937852,9.751135853309819,0.0017720177823563855,-0.0016761598847430735,-0.002181661564992912,-8.15949243692435,0.4849568762007485,-63.5
1772311554.6940763,-3.0833468686784626,1.0639098645032488,-8.119692258400477,-0.3011385342504109,1.3659167477937852,9.751135853309819,0.0017720177823563855,-0.0016761598847430735,-0.002181661564992912,-8.15949243692435,0.4849568762007485,-63.5
1772311554.7358444,-3.0833468686784626,1.0639098645032488,-8.119692258400477,-0.3019255249641282,1.3633336676420822,9.75744612110401,-0.001398442646362446,0.000651292374374567,0.001090830782496456,-8.15949243692435,0.4849568762007485,-63.5
1772311554.7510297,-3.0833468686784626,1.0639098645032488,-8.119692258400477,-0.3024492584928447,1.3616146566560199,9.754955310416095,0.0010248675103685064,0.00037357513599393954,0.0,-6.900028397588005,1.4097036434936017,-63.0625
1772311554.7828696,-3.0833468686784626,1.0639098645032488,-8.119692258400477,-0.3016522020575567,1.3573278434980711,9.756642815434786,0.0,0.0,0.0,-6.900028397588005,1.4097036434936017,-63.0625
1772311554.8455288,-3.0833468686784626,1.0639098645032488,-8.119692258400477,-0.30112176990357636,1.354475017228297,9.757765831174058,-0.002049735020737013,-0.0007471502719878791,0.0,-8.026703978700201,1.39815440431964,-64.0
1772311554.8750827,-3.0833468686784626,1.0639098645032488,-8.119692258400477,-0.3007687732304178,1.3525764932139197,9.758513185603636,0.002145592918350325,-0.00270102739511158,-0.001090830782496456,-8.026703978700201,1.39815440431964,-64.0
1772311554.9091678,-3.0833468686784626,1.0639098645032488,-8.119692258400477,-0.30596787893332106,1.3564531125407628,9.752320318213386,0.00037357513599393954,-0.0010248675103685064,-0.001090830782496456,-7.674380481275027,1.5265800760605115,-63.1875
1772311554.936613,-3.0833468686784626,1.0639098645032488,-8.119692258400477,-0.30942782570078703,1.3590329593981014,9.748199034144037,0.0010248675103685064,0.00037357513599393954,0.0,-7.674380481275027,1.5265800760605115,-63.1875
1772311554.9633346,-3.0833468686784626,1.0639098645032488,-8.119692258400477,-0.3062963605787387,1.3556097528123745,9.748801477340963,0.0010248675103685064,0.00037357513599393954,-0.001090830782496456,-7.674380481275027,1.5265800760605115,-63.1875
1772311554.9795074,-3.0833468686784626,1.0639098645032488,-8.119692258400477,-0.3062963605787387,1.3556097528123745,9.748801477340963,0.0010248675103685064,0.00037357513599393954,-0.001090830782496456,-7.674380481275027,1.5265800760605115,-63.1875
1772311555.0082378,-3.0833468686784626,1.0639098645032488,-8.119692258400477,-0.30306681027261106,1.3501888165199611,9.752547508266106,0.0007471502719878791,-0.002049735020737013,0.002181661564992912,-7.396124859169807,0.7632124983059694,-63.0625
1772311555.0225964,-3.0833468686784626,1.0639098645032488,-8.119692258400477,-0.2989203453191508,1.3508696697706837,9.755040450000882,0.0010248675103685064,0.00037357513599393954,-0.001090830782496456,-7.396124859169807,0.7632124983059694,-63.0625
1772311555.0615704,-3.0833468686784626,1.0639098645032488,-8.119692258400477,-0.2984521097079954,1.3576084311020802,9.75669947487739,0.0,0.0,-0.001090830782496456,-8.188083168238512,2.935874065761205,-64.375
1772311555.1209693,-3.0833468686784626,1.0639098645032488,-8.119692258400477,-0.298140504139306,1.3620930014912283,9.754458425692865,-0.001398442646362446,0.000651292374374567,0.0,-8.188083168238512,2.935874065761205,-64.375
1772311555.1585417,-3.0833468686784626,1.0639098645032488,-8.119692258400477,-0.30192760471655167,1.3565005813942785,9.752967032494723,-0.00037357513599393954,0.0010248675103685064,0.0,-7.674380481275027,1.5265800760605115,-63.1875
1772311555.1958668,-3.0833468686784626,1.0639098645032488,-8.119692258400477,-0.3075907083953584,1.3516332930430222,9.748629415273994,0.0007471502719878791,-0.002049735020737013,-0.001090830782496456,-7.674380481275027,1.5265800760605115,-63.1875
1772311555.2364168,-3.0833468686784626,1.0639098645032488,-8.119692258400477,-0.31250503588075307,1.3515369975657696,9.745742779467959,0.0007471502719878791,-0.002049735020737013,0.001090830782496456,-7.263336400945659,1.676410026424861,-65.0625
1772311555.262235,-3.0833468686784626,1.0639098645032488,-8.119692258400477,-0.3126326353763132,1.352618509249511,9.747166867292195,-0.00027771723838062733,-0.0024233101567309526,0.002181661564992912,-7.263336400945659,1.676410026424861,-65.0625
1772311555.330278,-3.0833468686784626,1.0639098645032488,-8.119692258400477,-0.3072835303695696,1.3481981773432556,9.748114581831121,0.0,0.0,0.001090830782496456,-7.310507744675893,0.5283301666891871,-63.5625
1772311555.3634844,-3.0833468686784626,1.0639098645032488,-8.119692258400477,-0.30372376074099994,1.3452564958379856,9.752090386977432,-9.58578976133123e-05,0.003448177667099459,0.001090830782496456,-7.310507744675893,0.5283301666891871,-63.5625
1772311555.391603,-3.0833468686784626,1.0639098645032488,-8.119692258400477,-0.30372376074099994,1.3452564958379856,9.752090386977432,-9.58578976133123e-05,0.003448177667099459,0.001090830782496456,-7.310507744675893,0.5283301666891871,-63.5625
1772311555.433443,-3.0833468686784626,1.0639098645032488,-8.119692258400477,-0.2977810041835863,1.3462844671344432,9.750925780930908,-0.001398442646362446,0.000651292374374567,-0.002181661564992912,-8.673195123887833,1.8942508659014419,-55.0625
1772311555.4653873,-3.0833468686784626,1.0639098645032488,-8.119692258400477,-0.2977810041835863,1.3462844671344432,9.750925780930908,-0.001398442646362446,0.000651292374374567,-0.002181661564992912,-8.673195123887833,1.8942508659014419,-55.0625
1772311555.4944954,-3.0833468686784626,1.0639098645032488,-8.119692258400477,-0.2954027004132277,1.3482713688690617,9.75061609686787,-0.0010248675103685064,-0.00037357513599393954,-0.001090830782496456,-8.672630390646352,1.1627073394613767,-64.375
1772311555.5110178,-3.0833468686784626,1.0639098645032488,-8.119692258400477,-0.30125122216828004,1.3504452698313147,9.750410005583314,0.0007471502719878791,-0.002049735020737013,-0.002181661564992912,-8.672630390646352,1.1627073394613767,-64.375
1772311555.5257244,-3.0833468686784626,1.0639098645032488,-8.119692258400477,-0.3051433480639987,1.3518919766376292,9.750272854135632,-0.001398442646362446,0.000651292374374567,0.0,-8.672630390646352,1.1627073394613767,-64.375
1772311555.5386128,-3.0833468686784626,1.0639098645032488,-8.119692258400477,-0.3051433480639987,1.3518919766376292,9.750272854135632,-0.001398442646362446,0.000651292374374567,0.0,-8.672630390646352,1.1627073394613767,-64.375
1772311555.5601296,-3.0833468686784626,1.0639098645032488,-8.119692258400477,-0.3077335143697043,1.3528547438564575,9.746836469671964,0.0007471502719878791,-0.002049735020737013,-0.002181661564992912,-8.026703978700201,1.39815440431964,-63.0625
1772311555.5983384,-3.0833468686784626,1.0639098645032488,-8.119692258400477,-0.30516881531460094,1.3514982193846001,9.74789470590564,-0.00037357513599393954,0.0010248675103685064,-0.001090830782496456,-8.026703978700201,1.39815440431964,-63.0625
1772311555.6650941,-3.0833468686784626,1.0639098645032488,-8.119692258400477,-0.3046076319911572,1.3537382980512853,9.74525383859056,-0.001398442646362446,0.000651292374374567,0.0,-8.026703978700201,1.39815440431964,-63.5625
1772311555.7097566,-3.0833468686784626,1.0639098645032488,-8.119692258400477,-0.3030885755100719,1.352086214831311,9.746841482600114,0.00027771723838062733,0.0024233101567309526,-0.001090830782496456,-8.026703978700201,1.39815440431964,-63.5625
1772311555.7296069,-3.0833468686784626,1.0639098645032488,-8.119692258400477,-0.3030885755100719,1.352086214831311,9.746841482600114,0.00027771723838062733,0.0024233101567309526,-0.001090830782496456,-8.026703978700201,1.39815440431964,-63.5625
1772311555.7583823,-3.0833468686784626,1.0639098645032488,-8.119692258400477,-0.3032232556390444,1.3541296024527318,9.747898041953327,-0.00027771723838062733,-0.0024233101567309526,0.0,-7.662831242101067,0.3999044949483157,-64.375
1772311555.7837338,-3.0833468686784626,1.0639098645032488,-8.119692258400477,-0.3001700532110649,1.3566350493368142,9.748601170400349,0.00027771723838062733,0.0024233101567309526,0.0,-7.662831242101067,0.3999044949483157,-64.375
1772311555.8123696,-3.0833468686784626,1.0639098645032488,-8.119692258400477,-0.30442384220042057,1.3560112057541716,9.745723982820063,0.001398442646362446,-0.000651292374374567,0.001090830782496456,-7.662831242101067,0.3999044949483157,-64.375
1772311555.8419766,-3.0833468686784626,1.0639098645032488,-8.119692258400477,-0.30442384220042057,1.3560112057541716,9.745723982820063,0.001398442646362446,-0.000651292374374567,0.001090830782496456,-7.662831242101067,0.3999044949483157,-64.375
1772311555.8605907,-3.0833468686784626,1.0639098645032488,-8.119692258400477,-0.3041118607055651,1.3567416400668741,9.743809246625675,0.00027771723838062733,0.0024233101567309526,-0.001090830782496456,-7.674380481275027,1.5265800760605115,-64.0
1772311555.8787863,-3.0833468686784626,1.0639098645032488,-8.119692258400477,-0.3039042405058005,1.3572277359424918,9.749225234491952,0.00027771723838062733,0.0024233101567309526,-0.003272492347489368,-7.674380481275027,1.5265800760605115,-64.0
1772311555.9124928,-3.0833468686784626,1.0639098645032488,-8.119692258400477,-0.3039042405058005,1.3572277359424918,9.749225234491952,0.00027771723838062733,0.0024233101567309526,-0.003272492347489368,-7.674380481275027,1.5265800760605115,-64.0
1772311555.9419782,-3.0833468686784626,1.0639098645032488,-8.119692258400477,-0.30376607158212676,1.3575512273176686,9.75617462562373,0.00037357513599393954,-0.0010248675103685064,0.001090830782496456,-8.43774805902957,1.2483244539552907,-64.0
1772311555.9613624,-3.0833468686784626,1.0639098645032488,-8.119692258400477,-0.3005312911575348,1.3589121024623754,9.760799367792144,0.002049735020737013,0.0007471502719878791,0.001090830782496456,-8.43774805902957,1.2483244539552907,-64.0
1772311555.9904125,-3.0833468686784626,1.0639098645032488,-8.119692258400477,-0.304664242018504,1.3575265591728822,9.75718685862883,0.004195327939087339,-0.001953877123123701,0.001090830782496456,-8.43774805902957,1.2483244539552907,-64.0
1772311556.0123575,-3.0833468686784626,1.0639098645032488,-8.119692258400477,-0.304664242018504,1.3575265591728822,9.75718685862883,0.004195327939087339,-0.001953877123123701,0.001090830782496456,-8.43774805902957,1.2483244539552907,-64.0
1772311556.0443394,-3.0833468686784626,1.0639098645032488,-8.119692258400477,-0.3042718440990577,1.3577500908394193,9.754782774135014,-0.0016761598847430733,-0.0017720177823563855,-0.001090830782496456,-9.435997968400896,0.8844517173561565,-64.0
1772311556.0627887,-3.0833468686784626,1.0639098645032488,-8.119692258400477,-0.3040107076670382,1.3578988486664874,9.753182882759765,-0.001398442646362446,0.000651292374374567,0.001090830782496456,-9.435997968400896,0.8844517173561565,-64.0
1772311556.1086285,-3.0833468686784626,1.0639098645032488,-8.119692258400477,-0.30383692428861436,1.3579978453386674,9.752118172921493,0.001398442646362446,-0.000651292374374567,0.001090830782496456,-7.028454069328876,1.7620271409187749,-64.375
1772311556.1444385,-3.0833468686784626,1.0639098645032488,-8.119692258400477,-0.30372127339156074,1.358063726518138,9.748064508710392,-0.001398442646362446,0.000651292374374567,-0.001090830782496456,-7.028454069328876,1.7620271409187749,-64.375
1772311556.1654956,-3.0833468686784626,1.0639098645032488,-8.119692258400477,-0.3036443090114768,1.3581075697071345,9.745366840460301,0.0,0.0,0.0,-7.028454069328876,1.7620271409187749,-64.375
1772311556.212773,-3.0833468686784626,1.0639098645032488,-8.119692258400477,-0.3036443090114768,1.3581075697071345,9.745366840460301,0.0,0.0,0.0,-7.028454069328876,1.7620271409187749,-64.375
1772311556.2349563,-3.0833468686784626,1.0639098645032488,-8.119692258400477,-0.3035930900762794,1.3581367468596512,9.743571572374794,0.0016761598847430733,0.0017720177823563855,-0.001090830782496456,-7.545954809534156,1.1742565786353383,-64.75
1772311556.2834146,-3.0833468686784626,1.0639098645032488,-8.119692258400477,-0.3035590044470585,1.3581561639287212,9.742376841518348,-0.0010248675103685064,-0.00037357513599393954,-0.001090830782496456,-7.545954809534156,1.1742565786353383,-64.75
1772311556.3049538,-3.0833468686784626,1.0639098645032488,-8.119692258400477,-0.30039349029223833,1.359314681019446,9.741581761479402,0.0016761598847430733,0.0017720177823563855,-0.001090830782496456,-8.43774805902957,1.2483244539552907,-63.0625
1772311556.3522732,-3.0833468686784626,1.0639098645032488,-8.119692258400477,-0.30028411128448873,1.3557972354043428,9.74105264459511,-0.0007471502719878791,0.002049735020737013,-0.001090830782496456,-8.43774805902957,1.2483244539552907,-63.0625
1772311556.3861082,-3.0833468686784626,1.0639098645032488,-8.119692258400477,-0.30135691602483683,1.3565992451892686,9.747390746633874,-0.0007471502719878791,0.002049735020737013,0.0,-7.413166351310008,2.08745410675423,-64.375
1772311556.4192994,-3.1484850866254104,1.9383826744187487,-8.299663929776367,-0.3009252603473624,1.3539901431927652,9.751608682739432,-0.001398442646362446,0.000651292374374567,0.001090830782496456,-7.413166351310008,2.08745410675423,-64.375
1772311556.4363303,-3.1484850866254104,1.9383826744187487,-8.299663929776367,-0.3009252603473624,1.3539901431927652,9.751608682739432,-0.001398442646362446,0.000651292374374567,0.001090830782496456,-7.413166351310008,2.08745410675423,-64.375
1772311556.463749,-3.0833468686784626,1.0639098645032488,-8.119692258400477,-0.300637998315913,1.3522538149596712,9.754415672100247,-0.00037357513599393954,0.0010248675103685064,-0.001090830782496456,-7.413166351310008,2.08745410675423,-64.375
1772311556.529872,-3.0833468686784626,1.0639098645032488,-8.119692258400477,-0.29508525818883263,1.3522373069759794,9.75752683864885,-0.0017720177823563855,0.0016761598847430735,0.001090830782496456,-7.674380481275027,1.5265800760605115,-64.375
1772311556.5638342,-3.0833468686784626,1.0639098645032488,-8.119692258400477,-0.2978971373646721,1.354230152587199,9.758354138747832,-0.0010248675103685064,-0.00037357513599393954,-0.002181661564992912,-7.89827830695933,1.045830906894467,-64.0
1772311556.599735,-3.0833468686784626,1.0639098645032488,-8.119692258400477,-0.2997684115454447,1.3555563690799213,9.762249809429475,-0.0007471502719878791,0.002049735020737013,-0.001090830782496456,-7.89827830695933,1.045830906894467,-64.0
1772311556.672576,-3.0833468686784626,1.0639098645032488,-8.119692258400477,-0.3010137236092466,1.3564389513410193,9.761497223043298,0.00037357513599393954,-0.0010248675103685064,0.0,-8.026703978700201,1.39815440431964,-64.0
1772311556.713193,-3.0833468686784626,1.0639098645032488,-8.119692258400477,-0.30069686962849757,1.353883469427355,9.764341496917556,-0.001398442646362446,0.000651292374374567,-0.001090830782496456,-8.026703978700201,1.39815440431964,-64.0
1772311556.7431896,-3.0833468686784626,1.0639098645032488,-8.119692258400477,-0.30069686962849757,1.353883469427355,9.764341496917556,-0.001398442646362446,0.000651292374374567,-0.001090830782496456,-8.026703978700201,1.39815440431964,-64.0
1772311556.777515,-3.0833468686784626,1.0639098645032488,-8.119692258400477,-0.30163160209196194,1.35532565530975,9.759544105993616,0.0006512923743745669,0.001398442646362446,-0.001090830782496456,-7.263336400945659,1.676410026424861,-64.75
1772311556.822295,-3.0833468686784626,1.0639098645032488,-8.119692258400477,-0.2991108255554166,1.3574310091523738,9.756351495924102,-0.00037357513599393954,0.0010248675103685064,0.0,-7.263336400945659,1.676410026424861,-64.75
1772311556.8520834,-3.0833468686784626,1.0639098645032488,-8.119692258400477,-0.2974332769292647,1.3588320986162965,9.754226849586631,0.0,0.0,-0.001090830782496456,-7.413166351310008,2.08745410675423,-63.1875
1772311556.884801,-3.0833468686784626,1.0639098645032488,-8.119692258400477,-0.2963168870580065,1.3597645080033423,9.7528129211829,0.0,0.0,0.0,-7.413166351310008,2.08745410675423,-63.1875
1772311556.9230804,-3.0833468686784626,1.0639098645032488,-8.119692258400477,-0.2975711773707494,1.356096590237229,9.75521707933215,-0.0007471502719878791,0.002049735020737013,-0.001090830782496456,-8.026703978700201,1.39815440431964,-64.375
1772311556.9466498,-3.0833468686784626,1.0639098645032488,-8.119692258400477,-0.2984058935625389,1.3536556319372068,9.76016213143159,0.0,0.0,-0.001090830782496456,-8.026703978700201,1.39815440431964,-64.375
1772311556.9833198,-3.0833468686784626,1.0639098645032488,-8.119692258400477,-0.2958185573144489,1.3531767967039947,9.763453008363916,0.0006512923743745669,0.001398442646362446,0.0,-7.545954809534156,1.1742565786353383,-62.0
1772311557.0369794,-3.0833468686784626,1.0639098645032488,-8.119692258400477,-0.2958185573144489,1.3531767967039947,9.763453008363916,0.0006512923743745669,0.001398442646362446,0.0,-7.545954809534156,1.1742565786353383,-62.0
1772311557.0692694,-3.0833468686784626,1.0639098645032488,-8.119692258400477,-0.29638790444010865,1.3591437983039023,9.765643050200875,-0.0011207254079818186,0.00307460253110552,-0.001090830782496456,-7.545954809534156,1.1742565786353383,-62.0
1772311557.1077971,-3.0833468686784626,1.0639098645032488,-8.119692258400477,-0.29676679859221106,1.3631147712128655,9.760410275164363,0.0017720177823563855,-0.0016761598847430735,0.0,-8.309322387288699,0.8960009565301175,-64.375
1772311557.1277843,-3.0833468686784626,1.0639098645032488,-8.119692258400477,-0.29901618371908334,1.3614689835276095,9.75692792183149,0.0010248675103685064,0.00037357513599393954,0.001090830782496456,-8.309322387288699,0.8960009565301175,-64.375
1772311557.1530695,-3.0833468686784626,1.0639098645032488,-8.119692258400477,-0.30051312439373856,1.3603737302077248,9.75126534288158,0.00027771723838062733,0.0024233101567309526,-0.001090830782496456,-8.309322387288699,0.8960009565301175,-64.375
1772311557.1788874,-3.0833468686784626,1.0639098645032488,-8.119692258400477,-0.30051312439373856,1.3603737302077248,9.75126534288158,0.00027771723838062733,0.0024233101567309526,-0.001090830782496456,-8.309322387288699,0.8960009565301175,-64.375
1772311557.20636,-3.0833468686784626,1.0639098645032488,-8.119692258400477,-0.3046521522401337,1.3584992561099607,9.750842071552885,-0.0011207254079818186,0.00307460253110552,0.001090830782496456,-7.413166351310008,2.08745410675423,-63.5625
1772311557.2317078,-3.0833468686784626,1.0639098645032488,-8.119692258400477,-0.30740662903593907,1.3572518145371464,9.75056038921189,-0.0010248675103685064,-0.00037357513599393954,0.0,-7.413166351310008,2.08745410675423,-63.5625
1772311557.254954,-3.0833468686784626,1.0639098645032488,-8.119692258400477,-0.30609687202469055,1.3575672513534358,9.750372932760555,-0.0007471502719878791,0.002049735020737013,-0.001090830782496456,-6.195381402737659,1.6665549869753438,-64.0
1772311557.2699091,-3.0833468686784626,1.0639098645032488,-8.119692258400477,-0.30609687202469055,1.3575672513534358,9.750372932760555,-0.0007471502719878791,0.002049735020737013,-0.001090830782496456,-6.195381402737659,1.6665549869753438,-64.0
1772311557.327168,-3.0833468686784626,1.0639098645032488,-8.119692258400477,-0.3020824128153141,1.3589227662791783,9.750248182586217,0.0013025847487491337,0.002796885292724892,0.0,-6.195381402737659,1.6665549869753438,-64.0
1772311557.3567271,-3.0833468686784626,1.0639098645032488,-8.119692258400477,-0.29941083505592175,1.359824846320166,9.750165162738746,-0.0007471502719878791,0.002049735020737013,-0.001090830782496456,-8.309322387288699,0.8960009565301175,-62.375
1772311557.3966024,-3.0833468686784626,1.0639098645032488,-8.119692258400477,-0.29763292990052514,1.360425170510549,9.750109913957647,0.0007471502719878791,-0.002049735020737013,-0.001090830782496456,-8.309322387288699,0.8960009565301175,-62.375
1772311557.4368756,-3.0833468686784626,1.0639098645032488,-8.119692258400477,-0.29763292990052514,1.360425170510549,9.750109913957647,0.0007471502719878791,-0.002049735020737013,-0.001090830782496456,-8.309322387288699,0.8960009565301175,-62.375
1772311557.4731667,-3.0833468686784626,1.0639098645032488,-8.119692258400477,-0.29445251857893745,1.3651131053506853,9.753418258218314,0.00027771723838062733,0.0024233101567309526,0.0,-7.824210431639377,1.9376241563898806,-64.375
1772311557.5320854,-3.0833468686784626,1.0639098645032488,-8.119692258400477,-0.2923359903719432,1.3682328736191327,9.755619924367162,0.00037357513599393954,-0.0010248675103685064,-0.001090830782496456,-7.824210431639377,1.9376241563898806,-64.375
1772311557.5522087,-3.0833468686784626,1.0639098645032488,-8.119692258400477,-0.2923359903719432,1.3682328736191327,9.755619924367162,0.00037357513599393954,-0.0010248675103685064,-0.001090830782496456,-7.824210431639377,1.9376241563898806,-64.375
1772311557.5771277,-3.0833468686784626,1.0639098645032488,-8.119692258400477,-0.2909274644933577,1.3703090445516892,9.760430220302316,-0.00027771723838062733,-0.0024233101567309526,-0.001090830782496456,-7.498783465803922,2.3223364383710123,-64.0
1772311557.6113117,-3.0833468686784626,1.0639098645032488,-8.119692258400477,-0.29313293680475927,1.370545117866795,9.760286306805316,-0.0006512923743745669,-0.001398442646362446,0.001090830782496456,-7.498783465803922,2.3223364383710123,-64.0
1772311557.6347969,-3.0833468686784626,1.0639098645032488,-8.119692258400477,-0.292309463494933,1.3644165609222156,9.760190533980682,-0.0006512923743745669,-0.001398442646362446,0.001090830782496456,-7.134910729204788,1.3240865289996877,-63.5625
1772311557.660081,-3.0833468686784626,1.0639098645032488,-8.119692258400477,-0.2960498770035403,1.362335310037238,9.76012679823574,0.001398442646362446,-0.000651292374374567,0.0,-7.134910729204788,1.3240865289996877,-63.5625
1772311557.6977477,-3.0833468686784626,1.0639098645032488,-8.119692258400477,-0.29425065461286476,1.3589530255212081,9.760084382809456,-0.001398442646362446,0.000651292374374567,0.0,-7.134910729204788,1.3240865289996877,-63.5625
1772311557.7337828,-3.0833468686784626,1.0639098645032488,-8.119692258400477,-0.3004845485573333,1.357553793011395,9.760056155817075,-0.001398442646362446,0.000651292374374567,0.002181661564992912,-7.9098275461332905,2.172506488006663,-63.5625
1772311557.7685888,-3.0833468686784626,1.0639098645032488,-8.119692258400477,-0.30234194484389504,1.3503369583078955,9.760037371068963,0.0006512923743745669,0.001398442646362446,0.001090830782496456,-7.9098275461332905,2.172506488006663,-63.5625
1772311557.8116744,-3.0833468686784626,1.0639098645032488,-8.119692258400477,-0.30701480706861184,1.3549627270780478,9.756679758321614,0.002049735020737013,0.0007471502719878791,-0.001090830782496456,-7.134910729204788,1.3240865289996877,-64.0
1772311557.8486505,-3.0833468686784626,1.0639098645032488,-8.119692258400477,-0.30701480706861184,1.3549627270780478,9.756679758321614,0.002049735020737013,0.0007471502719878791,-0.001090830782496456,-7.134910729204788,1.3240865289996877,-64.0
1772311557.8979712,-3.0833468686784626,1.0639098645032488,-8.119692258400477,-0.30583611888237244,1.3560438892201883,9.757790416252563,0.0017720177823563855,-0.0016761598847430735,0.0,-7.134910729204788,1.3240865289996877,-64.0
1772311557.9485946,-3.0833468686784626,1.0639098645032488,-8.119692258400477,-0.3030544797600668,1.361051816345907,9.758529546698748,-0.0007471502719878791,0.002049735020737013,-0.001090830782496456,-8.672630390646352,1.1627073394613767,-63.5625
1772311557.9682484,-3.0833468686784626,1.0639098645032488,-8.119692258400477,-0.3032005652982905,1.3600961101083644,9.759021429754057,0.0,0.0,0.0,-8.672630390646352,1.1627073394613767,-63.5625
1772311557.9992437,-3.0833468686784626,1.0639098645032488,-8.119692258400477,-0.30015495304276085,1.36060569353138,9.75934877243267,0.00037357513599393954,-0.0010248675103685064,0.0,-6.339154366894287,1.1484895135285822,-63.5625
1772311558.030568,-3.0833468686784626,1.0639098645032488,-8.119692258400477,-0.296982536860262,1.357801985057642,9.756221503621312,0.001398442646362446,-0.000651292374374567,0.001090830782496456,-6.339154366894287,1.1484895135285822,-63.5625
1772311558.0499,-3.0833468686784626,1.0639098645032488,-8.119692258400477,-0.29487132932901977,1.3559361483878452,9.754140341161234,-0.002327452259117641,-0.0031704604287188316,-0.002181661564992912,-6.339154366894287,1.1484895135285822,-63.5625
1772311558.0770488,-3.0833468686784626,1.0639098645032488,-8.119692258400477,-0.29487132932901977,1.3559361483878452,9.754140341161234,-0.002327452259117641,-0.0031704604287188316,-0.002181661564992912,-6.339154366894287,1.1484895135285822,-63.5625
1772311558.1083622,-3.0833468686784626,1.0639098645032488,-8.119692258400477,-0.29346634430071145,1.3546944549268565,9.75275535079216,0.0007471502719878791,-0.002049735020737013,0.0,-7.498783465803922,2.3223364383710123,-64.0
1772311558.1412609,-3.0833468686784626,1.0639098645032488,-8.119692258400477,-0.2925313424590834,1.3538681217991935,9.755178766880217,-0.00037357513599393954,0.0010248675103685064,0.0,-7.498783465803922,2.3223364383710123,-64.0
1772311558.1662877,-3.0833468686784626,1.0639098645032488,-8.119692258400477,-0.2930547044262969,1.3564610368828147,9.756791523215487,-0.0010248675103685064,-0.00037357513599393954,-0.001090830782496456,-6.985080778840438,0.9130424486703188,-63.5625
1772311558.192906,-3.0833468686784626,1.0639098645032488,-8.119692258400477,-0.2930547044262969,1.3564610368828147,9.756791523215487,-0.0010248675103685064,-0.00037357513599393954,-0.001090830782496456,-6.985080778840438,0.9130424486703188,-63.5625
1772311558.2237296,-3.0833468686784626,1.0639098645032488,-8.119692258400477,-0.2934029959691412,1.3581865929062051,9.754519682833621,0.001398442646362446,-0.000651292374374567,0.0,-6.985080778840438,0.9130424486703188,-63.5625
1772311558.246764,-3.0833468686784626,1.0639098645032488,-8.119692258400477,-0.2936347801002327,1.359334931164048,9.75300779843761,0.001398442646362446,-0.000651292374374567,-0.001090830782496456,-7.824210431639377,1.9376241563898806,-64.75
1772311558.2685657,-3.0833468686784626,1.0639098645032488,-8.119692258400477,-0.29493462509843765,1.3632419679961985,9.75200165626092,0.0017720177823563855,-0.0016761598847430735,-0.002181661564992912,-7.824210431639377,1.9376241563898806,-64.75
1772311558.2980065,-3.0833468686784626,1.0639098645032488,-8.119692258400477,-0.29493462509843765,1.3632419679961985,9.75200165626092,0.0017720177823563855,-0.0016761598847430735,-0.002181661564992912,-7.824210431639377,1.9376241563898806,-64.75
1772311558.31579,-3.0833468686784626,1.0639098645032488,-8.119692258400477,-0.2989424879738581,1.3646964621153714,9.741296744759719,0.002049735020737013,0.0007471502719878791,-0.001090830782496456,-7.824210431639377,1.9376241563898806,-64.75
1772311558.3314505,-3.0833468686784626,1.0639098645032488,-8.119692258400477,-0.30046408069852654,1.362521581154582,9.737517857444686,-0.0016761598847430733,-0.0017720177823563855,0.0,-7.89827830695933,1.045830906894467,-63.5625
1772311558.3621678,-3.0833468686784626,1.0639098645032488,-8.119692258400477,-0.30147668365948893,1.361074222170189,9.73500305014947,0.0024233101567309526,-0.00027771723838062744,0.001090830782496456,-7.89827830695933,1.045830906894467,-63.5625
1772311558.3827388,-3.0833468686784626,1.0639098645032488,-8.119692258400477,-0.30147668365948893,1.361074222170189,9.73500305014947,0.0024233101567309526,-0.00027771723838062744,0.001090830782496456,-7.89827830695933,1.045830906894467,-63.5625
1772311558.4103632,-3.0833468686784626,1.0639098645032488,-8.119692258400477,-0.29786213382099613,1.3581137856329615,9.733329473986739,0.001398442646362446,-0.000651292374374567,0.001090830782496456,-7.028454069328876,1.7620271409187749,-64.75
1772311558.4334064,-3.0833468686784626,1.0639098645032488,-8.119692258400477,-0.29545669128064644,1.3561436481876796,9.738905951160152,0.0,0.0,0.001090830782496456,-7.028454069328876,1.7620271409187749,-64.75
1772311558.455279,-3.0833468686784626,1.0639098645032488,-8.119692258400477,-0.29545669128064644,1.3561436481876796,9.738905951160152,0.0,0.0,0.001090830782496456,-7.028454069328876,1.7620271409187749,-64.75
1772311558.4809008,-3.0833468686784626,1.0639098645032488,-8.119692258400477,-0.29385589614059754,1.3548325437257216,9.742617034425727,0.0006512923743745669,0.001398442646362446,0.0,-7.028454069328876,1.7620271409187749,-64.75
1772311558.5016487,-3.0833468686784626,1.0639098645032488,-8.119692258400477,-0.2939361801051104,1.3571028489016201,9.745086718883451,0.001398442646362446,-0.000651292374374567,0.0,-7.134910729204788,1.3240865289996877,-64.375
1772311558.532706,-3.0833468686784626,1.0639098645032488,-8.119692258400477,-0.2939896081866631,1.3586137116352104,9.743385154594563,0.0007471502719878791,-0.002049735020737013,0.0,-7.134910729204788,1.3240865289996877,-64.375
1772311558.5626547,-3.0833468686784626,1.0639098645032488,-8.119692258400477,-0.2971679945274407,1.3584735786588098,9.742252782568027,9.58578976133123e-05,-0.003448177667099459,0.0,-7.674380481275027,1.5265800760605115,-64.375
1772311558.6047618,-3.0833468686784626,1.0639098645032488,-8.119692258400477,-0.2992831751323264,1.3583803217284032,9.741499201633792,-0.0006512923743745669,-0.001398442646362446,0.001090830782496456,-7.674380481275027,1.5265800760605115,-64.375
1772311558.6323934,-3.0833468686784626,1.0639098645032488,-8.119692258400477,-0.30069080419676225,1.358318260282966,9.740997701940108,-0.002049735020737013,-0.0007471502719878791,0.0,-7.674380481275027,1.5265800760605115,-64.375
1772311558.6508334,-3.0833468686784626,1.0639098645032488,-8.119692258400477,-0.29848473506556233,1.3594225543324612,9.747354182910719,-9.58578976133123e-05,0.003448177667099459,0.0,-7.824210431639377,1.9376241563898806,-64.0
1772311558.6810217,-3.0833468686784626,1.0639098645032488,-8.119692258400477,-0.3001594512514908,1.3590118544384655,9.751584349990116,-0.0007471502719878791,0.002049735020737013,0.001090830782496456,-7.824210431639377,1.9376241563898806,-64.0
1772311558.710399,-3.0833468686784626,1.0639098645032488,-8.119692258400477,-0.30441678671475564,1.3575929429986677,9.754399478927393,-0.0006512923743745669,-0.001398442646362446,0.0,-7.824210431639377,1.9376241563898806,-63.5625
1772311558.7263646,-3.0833468686784626,1.0639098645032488,-8.119692258400477,-0.30441678671475564,1.3575929429986677,9.754399478927393,-0.0006512923743745669,-0.001398442646362446,0.0,-7.824210431639377,1.9376241563898806,-63.5625
1772311558.7393513,-3.0833468686784626,1.0639098645032488,-8.119692258400477,-0.3072499959080052,1.3566486732857617,9.75292780408078,0.0017720177823563855,-0.0016761598847430735,-0.001090830782496456,-7.824210431639377,1.9376241563898806,-63.5625
1772311558.7523925,-3.0833468686784626,1.0639098645032488,-8.119692258400477,-0.3072499959080052,1.3566486732857617,9.75292780408078,0.0017720177823563855,-0.0016761598847430735,-0.001090830782496456,-7.824210431639377,1.9376241563898806,-63.5625
1772311558.7667375,-3.0833468686784626,1.0639098645032488,-8.119692258400477,-0.3091354649770923,1.3560202723400065,9.748603309202725,-0.00037357513599393954,0.0010248675103685064,-0.001090830782496456,-7.824210431639377,1.9376241563898806,-63.5625
1772311558.7903802,-3.0833468686784626,1.0639098645032488,-8.119692258400477,-0.30410456248183004,1.3578932690266288,9.745725406169152,0.0,0.0,-0.001090830782496456,-7.674380481275027,1.5265800760605115,-64.0
1772311558.8076613,-3.0833468686784626,1.0639098645032488,-8.119692258400477,-0.30410456248183004,1.3578932690266288,9.745725406169152,0.0,0.0,-0.001090830782496456,-7.674380481275027,1.5265800760605115,-64.0
1772311558.8257666,-3.0833468686784626,1.0639098645032488,-8.119692258400477,-0.30389938361943125,1.35799413215067,9.743810193848594,-0.0010248675103685064,-0.00037357513599393954,0.0,-7.674380481275027,1.5265800760605115,-64.0
1772311558.8433633,-3.0833468686784626,1.0639098645032488,-8.119692258400477,-0.303762839378503,1.3580612554330047,9.749225864858223,0.00037357513599393954,-0.0010248675103685064,-0.002181661564992912,-7.674380481275027,1.5265800760605115,-64.0
1772311558.856006,-3.0833468686784626,1.0639098645032488,-8.119692258400477,-0.303762839378503,1.3580612554330047,9.749225864858223,0.00037357513599393954,-0.0010248675103685064,-0.002181661564992912,-7.674380481275027,1.5265800760605115,-64.0
1772311558.8704655,-3.0833468686784626,1.0639098645032488,-8.119692258400477,-0.30367197071146435,1.3581059252275822,9.746139710003485,0.0010248675103685064,0.00037357513599393954,0.001090830782496456,-8.58757800939392,1.6593685342846598,-62.375
1772311558.8881135,-3.0833468686784626,1.0639098645032488,-8.119692258400477,-0.3036114986286196,1.358135652476879,9.750776131836902,-0.00037357513599393954,0.0010248675103685064,0.0,-8.58757800939392,1.6593685342846598,-62.375
1772311558.9053617,-3.0833468686784626,1.0639098645032488,-8.119692258400477,-0.3036114986286196,1.358135652476879,9.750776131836902,-0.00037357513599393954,0.0010248675103685064,0.0,-8.58757800939392,1.6593685342846598,-62.375
1772311558.9178958,-3.0833468686784626,1.0639098645032488,-8.119692258400477,-0.30471685038116586,1.3612982661785464,9.74382628365286,0.0,0.0,-0.001090830782496456,-8.58757800939392,1.6593685342846598,-62.375
1772311558.9301326,-3.0833468686784626,1.0639098645032488,-8.119692258400477,-0.30471685038116586,1.3612982661785464,9.74382628365286,0.0,0.0,-0.001090830782496456,-8.58757800939392,1.6593685342846598,-62.375
1772311558.9523518,-3.0833468686784626,1.0639098645032488,-8.119692258400477,-0.30230961907556225,1.3645485455164579,9.749236572443229,0.0010248675103685064,0.00037357513599393954,0.0,-7.545954809534156,1.1742565786353383,-62.75
1772311558.9723694,-3.0833468686784626,1.0639098645032488,-8.119692258400477,-0.29841644303589465,1.3604259090091688,9.746146835781694,0.0006512923743745669,0.001398442646362446,0.0,-7.545954809534156,1.1742565786353383,-62.75
1772311559.0036685,-3.0833468686784626,1.0639098645032488,-8.119692258400477,-0.2958255778711218,1.357682340466435,9.750780873962702,0.001398442646362446,-0.000651292374374567,0.0,-7.545954809534156,1.1742565786353383,1984.0
1772311559.0197062,-3.0833468686784626,1.0639098645032488,-8.119692258400477,-0.2952469812939877,1.3589993567982497,9.750519662899244,0.00027771723838062733,0.0024233101567309526,0.0,-7.545954809534156,1.1742565786353383,1984.0
1772311559.0380113,-3.0833468686784626,1.0639098645032488,-8.119692258400477,-0.2952469812939877,1.3589993567982497,9.750519662899244,0.00027771723838062733,0.0024233101567309526,0.0,-7.545954809534156,1.1742565786353383,1984.0
1772311559.052371,-3.0833468686784626,1.0639098645032488,-8.119692258400477,-0.2948619317352522,1.3598758164550357,9.753690941561752,-0.0010248675103685064,-0.00037357513599393954,-0.002181661564992912,-7.545954809534156,1.1742565786353383,1984.0
1772311559.0698144,-3.1484850866254104,1.9383826744187487,-8.299663929776367,-0.2966029208563723,1.3561706647684342,9.752456280378826,0.0017720177823563855,-0.0016761598847430735,0.0,-7.396124859169807,0.7632124983059694,-63.5625
1772311559.1168745,-3.0833468686784626,1.0639098645032488,-8.119692258400477,-0.30090436021769,1.352559332462095,9.74828951544634,-0.00037357513599393954,0.0010248675103685064,0.002181661564992912,-7.396124859169807,0.7632124983059694,-63.5625
1772311559.1323037,-3.0833468686784626,1.0639098645032488,-8.119692258400477,-0.30491251531058283,1.3532988617027866,9.745516579929584,9.58578976133123e-05,-0.003448177667099459,-0.001090830782496456,-7.396124859169807,0.7632124983059694,-63.5625
1772311559.1495614,-3.0833468686784626,1.0639098645032488,-8.119692258400477,-0.30491251531058283,1.3532988617027866,9.745516579929584,9.58578976133123e-05,-0.003448177667099459,-0.001090830782496456,-7.396124859169807,0.7632124983059694,-63.5625
1772311559.1654809,-3.0833468686784626,1.0639098645032488,-8.119692258400477,-0.30243983190036877,1.3592250311970429,9.747016334026222,-0.0025191680543442648,0.0037258949054800863,0.0,-7.396124859169807,0.7632124983059694,-64.0
1772311559.1930797,-3.0833468686784626,1.0639098645032488,-8.119692258400477,-0.30079428871255487,1.3631688307958199,9.751359515331503,-0.0006512923743745669,-0.001398442646362446,0.001090830782496456,-7.396124859169807,0.7632124983059694,-64.0
1772311559.221754,-3.0833468686784626,1.0639098645032488,-8.119692258400477,-0.30079428871255487,1.3631688307958199,9.751359515331503,-0.0006512923743745669,-0.001398442646362446,0.001090830782496456,-7.396124859169807,0.7632124983059694,-64.0
1772311559.242173,-3.0833468686784626,1.0639098645032488,-8.119692258400477,-0.29969919810298645,1.3657933853736774,9.750904742266334,0.002796885292724892,-0.001302584748749134,-0.001090830782496456,-8.58757800939392,1.6593685342846598,-63.0625
1772311559.2567449,-3.0833468686784626,1.0639098645032488,-8.119692258400477,-0.29969919810298645,1.3657933853736774,9.750904742266334,0.002796885292724892,-0.001302584748749134,-0.001090830782496456,-8.58757800939392,1.6593685342846598,-63.0625
1772311559.277489,-3.0833468686784626,1.0639098645032488,-8.119692258400477,-0.3021132580846175,1.3663944018788843,9.750602095871612,0.00037357513599393954,-0.0010248675103685064,0.001090830782496456,-8.58757800939392,1.6593685342846598,-63.0625
1772311559.3215313,-3.0833468686784626,1.0639098645032488,-8.119692258400477,-0.3037197880355759,1.366794371649305,9.750400688076706,0.00037357513599393954,-0.0010248675103685064,0.001090830782496456,-7.028454069328876,1.7620271409187749,-64.375
1772311559.3466132,-3.0833468686784626,1.0639098645032488,-8.119692258400477,-0.3036433205236614,1.3639177165142298,9.74692154173175,0.001398442646362446,-0.000651292374374567,0.001090830782496456,-7.028454069328876,1.7620271409187749,-64.375
1772311559.3623862,-3.0833468686784626,1.0639098645032488,-8.119692258400477,-0.30159519694750725,1.3662917604536777,9.741261096996473,-0.0006512923743745669,-0.001398442646362446,-0.001090830782496456,-7.028454069328876,1.7620271409187749,-64.375
1772311559.3866081,-3.0833468686784626,1.0639098645032488,-8.119692258400477,-0.30159519694750725,1.3662917604536777,9.741261096996473,-0.0006512923743745669,-0.001398442646362446,-0.001090830782496456,-7.028454069328876,1.7620271409187749,-64.375
1772311559.4243553,-3.0833468686784626,1.0639098645032488,-8.119692258400477,-0.3065178546852863,1.365580469679248,9.737494134256456,0.0,0.0,0.0,-8.43774805902957,1.2483244539552907,-63.5625
1772311559.4471288,-3.0833468686784626,1.0639098645032488,-8.119692258400477,-0.3066509978707531,1.3662527088626655,9.748367709461984,-0.0016761598847430733,-0.0017720177823563855,0.001090830782496456,-8.43774805902957,1.2483244539552907,-63.5625
1772311559.4698958,-3.0833468686784626,1.0639098645032488,-8.119692258400477,-0.3067396031733745,1.366700076529826,9.75560395229547,0.0007471502719878791,-0.002049735020737013,-0.003272492347489368,-8.43774805902957,1.2483244539552907,-63.5625
1772311559.5045803,-3.0833468686784626,1.0639098645032488,-8.119692258400477,-0.30565297376432093,1.3638549641655622,9.760419591067025,-0.001398442646362446,0.000651292374374567,0.002181661564992912,-7.89827830695933,1.045830906894467,-64.0
1772311559.5540009,-3.0833468686784626,1.0639098645032488,-8.119692258400477,-0.3049298340310416,1.361961573669132,9.763624344875286,0.00027771723838062733,0.0024233101567309526,-0.002181661564992912,-7.89827830695933,1.045830906894467,-64.0
1772311559.566542,-3.0833468686784626,1.0639098645032488,-8.119692258400477,-0.3049298340310416,1.361961573669132,9.763624344875286,0.00027771723838062733,0.0024233101567309526,-0.002181661564992912,-7.89827830695933,1.045830906894467,-64.0
1772311559.6075478,-3.0833468686784626,1.0639098645032488,-8.119692258400477,-0.30444859261654444,1.3607015434443155,9.762411961027917,0.00037357513599393954,-0.0010248675103685064,-0.001090830782496456,-7.89827830695933,1.045830906894467,-64.0
1772311559.6304064,-3.0833468686784626,1.0639098645032488,-8.119692258400477,-0.3009855012816802,1.361008602653322,9.75491490970607,0.00037357513599393954,-0.0010248675103685064,0.0,-6.985080778840438,0.9130424486703188,-63.1875
1772311559.661139,-3.0833468686784626,1.0639098645032488,-8.119692258400477,-0.29868085268359307,1.3612129471268395,9.749925705798931,-0.0006512923743745669,-0.001398442646362446,0.0,-6.985080778840438,0.9130424486703188,-63.1875
1772311559.7182357,-3.0833468686784626,1.0639098645032488,-8.119692258400477,-0.29714713478617777,1.3613489360912883,9.74660544633179,0.0006512923743745669,0.001398442646362446,0.0,-8.544204718905481,0.8103838420362035,-64.375
1772311559.736608,-3.0833468686784626,1.0639098645032488,-8.119692258400477,-0.2961264626581994,1.3614394352280326,9.754431185868095,-0.001398442646362446,0.000651292374374567,0.0,-8.544204718905481,0.8103838420362035,-64.375
1772311559.7598398,-3.0833468686784626,1.0639098645032488,-8.119692258400477,-0.2961264626581994,1.3614394352280326,9.754431185868095,-0.001398442646362446,0.000651292374374567,0.0,-8.544204718905481,0.8103838420362035,-64.375
1772311559.78512,-3.0833468686784626,1.0639098645032488,-8.119692258400477,-0.2954472167586845,1.3614996613925943,9.749603792988308,-0.0010248675103685064,-0.00037357513599393954,0.003272492347489368,-8.15949243692435,0.4849568762007485,-64.0
1772311559.8236406,-3.0833468686784626,1.0639098645032488,-8.119692258400477,-0.29813801674956636,1.360394145984178,9.749736328659642,0.0017720177823563855,-0.0016761598847430735,0.0,-8.15949243692435,0.4849568762007485,-64.0
1772311559.8445783,-3.0833468686784626,1.0639098645032488,-8.119692258400477,-0.29678588353595775,1.3608040330774551,9.749824529668393,0.0010248675103685064,0.00037357513599393954,0.001090830782496456,-8.822460341010702,1.5737514197907458,-64.375
1772311559.8613877,-3.0833468686784626,1.0639098645032488,-8.119692258400477,-0.2958860539866188,1.3610768083592921,9.749883226454447,-0.0016761598847430733,-0.0017720177823563855,0.003272492347489368,-8.822460341010702,1.5737514197907458,-64.375
1772311559.893062,-3.0833468686784626,1.0639098645032488,-8.119692258400477,-0.2952872274732885,1.361258337262255,9.74657717680256,-0.0013025847487491337,-0.002796885292724892,0.0,-8.822460341010702,1.5737514197907458,-64.375
1772311559.9402163,-3.0833468686784626,1.0639098645032488,-8.119692258400477,-0.2952872274732885,1.361258337262255,9.74657717680256,-0.0013025847487491337,-0.002796885292724892,0.0,-8.822460341010702,1.5737514197907458,-64.375
1772311559.9710567,-3.0833468686784626,1.0639098645032488,-8.119692258400477,-0.2980315456673327,1.3602335474712042,9.744377037690224,0.0017720177823563855,-0.0016761598847430735,-0.002181661564992912,-7.674380481275027,1.5265800760605115,-63.5625
1772311560.0131953,-3.0833468686784626,1.0639098645032488,-8.119692258400477,-0.2998578587694262,1.3595515613129119,9.74291286968813,0.00027771723838062733,0.0024233101567309526,-0.001090830782496456,-7.674380481275027,1.5265800760605115,-63.5625
1772311560.0405297,-3.0833468686784626,1.0639098645032488,-8.119692258400477,-0.2998578587694262,1.3595515613129119,9.74291286968813,0.00027771723838062733,0.0024233101567309526,-0.001090830782496456,-7.674380481275027,1.5265800760605115,-63.5625
1772311560.0599794,-3.0833468686784626,1.0639098645032488,-8.119692258400477,-0.30421608028695046,1.3579521118946911,9.751973817360522,0.001398442646362446,-0.000651292374374567,-0.1407171709420428,-7.545954809534156,1.1742565786353383,-64.0
