timestamp,yaw,pitch,roll,ax,ay,az,gx,gy,gz,mx,my,mz
1772747058.5812855,-0.09606343063816043,1.2132039693016008,-9.054346268992905,-0.20306644810742655,-1.5500906277749793,9.706579695821208,-0.001090830782496456,0.0,0.0,1.1875,55.5625,-63.25
1772747058.8712056,-0.09606343063816043,1.2132039693016008,-9.054346268992905,-0.2009037700171616,-1.5537343126976861,9.718652963209035,-0.002181661564992912,0.0,0.001090830782496456,-0.25,56.0,-62.75
1772747059.3216155,-0.09606343063816043,1.2132039693016008,-9.054346268992905,-0.2051761742009527,-1.548076666664528,9.729762336496997,-0.001090830782496456,0.001090830782496456,0.002181661564992912,0.75,56.0,-61.5625
1772747059.4048991,-0.09606343063816043,1.2132039693016008,-9.054346268992905,-0.20344468610907956,-1.5453749314429652,9.729841837593627,0.0,0.001090830782496456,-0.001090830782496456,1.1875,55.6875,-61.5625
1772747059.4279664,-0.09606343063816043,1.2132039693016008,-9.054346268992905,-0.2022924001259273,-1.543576956833375,9.72654963297803,0.0,0.001090830782496456,0.0,1.1875,55.6875,-61.5625
1772747059.446913,-0.09606343063816043,1.2132039693016008,-9.054346268992905,-0.20152556667601731,-1.5457255365227045,9.724358707582685,0.0,-0.002181661564992912,0.002181661564992912,1.1875,55.6875,-61.5625
1772747059.4704425,-0.09606343063816043,1.2132039693016008,-9.054346268992905,-0.20152556667601731,-1.5457255365227045,9.724358707582685,0.0,-0.002181661564992912,0.002181661564992912,1.1875,55.6875,-61.5625
1772747059.4995604,-0.09606343063816043,1.2132039693016008,-9.054346268992905,-0.20101524758119313,-1.550500504012065,9.726245782913642,0.0,-0.002181661564992912,-0.001090830782496456,0.0625,56.375,-62.0
1772747059.5212226,-0.09606343063816043,1.2132039693016008,-9.054346268992905,-0.19733052421690606,-1.5536781915363524,9.7308467221737,0.0,-0.001090830782496456,-0.001090830782496456,0.0625,56.375,-62.0
1772747059.536441,-0.09606343063816043,1.2132039693016008,-9.054346268992905,-0.19487838197902999,-1.5557929070866703,9.73390859585541,0.0,-0.003272492347489368,-0.002181661564992912,0.0625,56.375,-62.0
1772747059.5605547,3.1964314866128694e-07,1.2131999327652243,-9.054316266627577,-0.19487838197902999,-1.5557929070866703,9.73390859585541,0.0,-0.003272492347489368,-0.002181661564992912,0.0625,56.375,-62.0
1772747059.6055777,3.1964314866128694e-07,1.2131999327652243,-9.054316266627577,-0.19064100885245425,-1.5541769323810626,9.73594623858722,-0.0010871714267152092,-0.002183487409888861,-0.001090830782496456,0.4066323890111058,55.688260040606465,-63.25
1772747059.6658397,3.1964314866128694e-07,1.2131999327652243,-9.054316266627577,-0.1929022860915127,-1.5528911428648884,9.733957155355958,-0.003274316659187448,0.0010853425154235207,-0.001090830782496456,0.4066323890111058,55.688260040606465,-63.25
1772747059.701084,3.1964314866128694e-07,1.2131999327652243,-9.054316266627577,-0.19775224783964113,-1.5520410727942027,9.72594321927043,0.0,0.0,0.0,0.6561080931374497,56.001178756970106,-62.0
1772747059.7242413,3.1964314866128694e-07,1.2131999327652243,-9.054316266627577,-0.200979843205398,-1.5514753606580662,9.717264922619723,0.0,0.0,0.001090830782496456,0.6561080931374497,56.001178756970106,-62.0
1772747059.763437,3.1964314866128694e-07,1.2131999327652243,-9.054316266627577,-0.200979843205398,-1.5514753606580662,9.717264922619723,0.0,0.0,0.001090830782496456,0.6561080931374497,56.001178756970106,-62.0
1772747059.826043,3.1964314866128694e-07,1.2131999327652243,-9.054316266627577,-0.20121021128895422,-1.5519617127441279,9.716562567086863,-0.0010908292492985863,-1.8289112916885357e-06,0.001090830782496456,0.6561080931374497,56.001178756970106,-62.0625
1772747059.8533628,3.1964314866128694e-07,1.2131999327652243,-9.054316266627577,-0.20121021128895422,-1.5519617127441279,9.716562567086863,-0.0010908292492985863,-1.8289112916885357e-06,0.001090830782496456,0.6561080931374497,56.001178756970106,-62.0625
1772747059.9482138,3.1964314866128694e-07,1.2131999327652243,-9.054316266627577,-0.19993597224727624,-1.551416938942133,9.724402650209587,0.0010908292492985863,1.8289112916885357e-06,0.001090830782496456,-1.0950421250603652,56.68574370151937,-62.5
1772747059.9908085,3.1964314866128694e-07,1.2131999327652243,-9.054316266627577,-0.1990879803992223,-1.5510543980624276,9.722929914533655,0.0,0.0,0.0,-1.0950421250603652,56.68574370151937,-62.5
1772747060.0053413,3.1964314866128694e-07,1.2131999327652243,-9.054316266627577,-0.198523651297032,-1.5508131311568307,9.721949825392858,-3.6578225833770713e-06,0.0021816584985971726,-0.002181661564992912,-0.343890501330277,55.99950213460022,-63.25
1772747060.0224943,3.1964314866128694e-07,1.2131999327652243,-9.054316266627577,-0.1981480965834935,-1.550652570726284,9.72129758701797,0.002183487409888861,-0.0010871714267152092,0.002181661564992912,-0.343890501330277,55.99950213460022,-63.25
1772747060.0390508,3.1964314866128694e-07,1.2131999327652243,-9.054316266627577,-0.1981480965834935,-1.550652570726284,9.72129758701797,0.002183487409888861,-0.0010871714267152092,0.002181661564992912,-0.343890501330277,55.99950213460022,-63.25
1772747060.052352,3.1964314866128694e-07,1.2131999327652243,-9.054316266627577,-0.19789816911685465,-1.5505457195533325,9.724208641372782,-1.8289112916885357e-06,0.0010908292492985863,0.001090830782496456,-0.343890501330277,55.99950213460022,-63.25
1772747060.0700629,3.1964314866128694e-07,1.2131999327652243,-9.054316266627577,-0.19789816911685465,-1.5505457195533325,9.724208641372782,-1.8289112916885357e-06,0.0010908292492985863,0.001090830782496456,-0.343890501330277,55.99950213460022,-63.25
1772747060.0848074,3.1964314866128694e-07,1.2131999327652243,-9.054316266627577,-0.19773184517967923,-1.550474611291339,9.726145915527301,0.0,0.0,-0.002181661564992912,1.094131422707668,55.68941271848576,-61.5625
1772747060.1085672,3.1964314866128694e-07,1.2131999327652243,-9.054316266627577,-0.19762676694656733,-1.5470821825316567,9.727435149836364,0.0010890003380068978,0.0010926581605902748,0.0,1.094131422707668,55.68941271848576,-61.5625
1772747060.1303823,3.1964314866128694e-07,1.2131999327652243,-9.054316266627577,-0.19762676694656733,-1.5470821825316567,9.727435149836364,0.0010890003380068978,0.0010926581605902748,0.0,1.094131422707668,55.68941271848576,-61.5625
1772747060.1534388,3.1964314866128694e-07,1.2131999327652243,-9.054316266627577,-0.2008907285836526,-1.5515203815884326,9.728293120867354,-1.8289112916885357e-06,0.0010908292492985863,0.001090830782496456,1.0929787448283748,56.37691175218232,-62.5
1772747060.1991787,3.1964314866128694e-07,1.2131999327652243,-9.054316266627577,-0.20306285859229234,-1.5544739534827852,9.728864091004313,0.0010908292492985863,1.8289112916885357e-06,0.001090830782496456,1.0929787448283748,56.37691175218232,-62.5
1772747060.2317472,3.1964314866128694e-07,1.2131999327652243,-9.054316266627577,-0.19781817283744615,-1.5564283056066803,9.729244065252306,-3.6578225833770713e-06,0.0021816584985971726,0.001090830782496456,1.4061070389882446,56.002436223747516,-62.5
1772747060.27104,3.1964314866128694e-07,1.2131999327652243,-9.054316266627577,-0.19433350154369292,-1.5543837981079318,9.732842045577074,-1.8289112916885357e-06,0.0010908292492985863,0.0,1.4061070389882446,56.002436223747516,-62.5
1772747060.3281202,3.1964314866128694e-07,1.2131999327652243,-9.054316266627577,-0.19433350154369292,-1.5543837981079318,9.732842045577074,-1.8289112916885357e-06,0.0010908292492985863,0.0,1.4061070389882446,56.002436223747516,-62.5
1772747060.4064329,3.1964314866128694e-07,1.2131999327652243,-9.054316266627577,-0.19382754057797325,-1.5454331336446987,9.736829918201463,3.6578225833770713e-06,-0.0021816584985971726,0.0,1.0924548003377867,56.68941131295349,-62.875
1772747060.4440637,3.1964314866128694e-07,1.2131999327652243,-9.054316266627577,-0.19503410433719037,-1.540382028469156,9.737890345975208,5.4867338750656074e-06,-0.0032724877478957594,-0.002181661564992912,-0.7801324196324966,55.24876966646261,-62.875
1772747060.4627106,3.1964314866128694e-07,1.2131999327652243,-9.054316266627577,-0.19503410433719037,-1.540382028469156,9.737890345975208,5.4867338750656074e-06,-0.0032724877478957594,-0.002181661564992912,-0.7801324196324966,55.24876966646261,-62.875
1772747060.516243,3.1964314866128694e-07,1.2131999327652243,-9.054316266627577,-0.19858259840625284,-1.5437036420089791,9.739065686168134,1.8289112916885357e-06,-0.0010908292492985863,0.0,0.406108444520518,56.00075960137763,-61.6875
1772747060.5672224,3.1964314866128694e-07,1.2131999327652243,-9.054316266627577,-0.19858259840625284,-1.5437036420089791,9.739065686168134,1.8289112916885357e-06,-0.0010908292492985863,0.0,0.406108444520518,56.00075960137763,-61.6875
1772747060.6360497,3.1964314866128694e-07,1.2131999327652243,-9.054316266627577,-0.203486172815014,-1.5529776810586053,9.739586215404916,0.0010944870718819634,-0.002179829587305484,0.0,0.4049557666412247,56.68825863507419,1985.25
1772747060.683999,3.1964314866128694e-07,1.2131999327652243,-9.054316266627577,-0.20479009773525156,-1.5554437700010832,9.739724630974248,0.0010853425154235207,0.003274316659187448,-0.001090830782496456,0.4049557666412247,56.68825863507419,1985.25
1772747060.74193,3.1964314866128694e-07,1.2131999327652243,-9.054316266627577,-0.20479009773525156,-1.5554437700010832,9.739724630974248,0.0010853425154235207,0.003274316659187448,-0.001090830782496456,0.4049557666412247,56.68825863507419,1985.25
1772747060.7606354,3.1964314866128694e-07,1.2131999327652243,-9.054316266627577,-0.20230712970909873,-1.5604244231608224,9.739816744989435,-5.4867338750656074e-06,0.0032724877478957594,-0.002181661564992912,0.6566320376280375,55.68867919619894,-62.75
1772747060.7908676,3.1964314866128694e-07,1.2131999327652243,-9.054316266627577,-0.20065474222426427,-1.5637389922010876,9.739878045837562,-1.8289112916885357e-06,0.0010908292492985863,-0.002181661564992912,0.6566320376280375,55.68867919619894,-62.75
1772747060.8075705,3.1964314866128694e-07,1.2131999327652243,-9.054316266627577,-0.20065474222426427,-1.5637389922010876,9.739878045837562,-1.8289112916885357e-06,0.0010908292492985863,-0.002181661564992912,0.6566320376280375,55.68867919619894,-62.75
1772747060.8248334,3.1964314866128694e-07,1.2131999327652243,-9.054316266627577,-0.1995663137897211,-1.559254586859908,9.739918840867215,0.0,0.0,0.0,0.6566320376280375,55.68867919619894,-61.25
1772747060.860584,3.1964314866128694e-07,1.2131999327652243,-9.054316266627577,-0.19884197682507485,-1.556270265199443,9.73660087779642,1.8289112916885357e-06,-0.0010908292492985863,0.0,0.6566320376280375,55.68867919619894,-61.25
1772747060.901705,3.1964314866128694e-07,1.2131999327652243,-9.054316266627577,-0.19884197682507485,-1.556270265199443,9.73660087779642,1.8289112916885357e-06,-0.0010908292492985863,0.0,0.6566320376280375,55.68867919619894,-61.25
1772747060.9156575,3.1964314866128694e-07,1.2131999327652243,-9.054316266627577,-0.1983599386664769,-1.5542842324714607,9.734392810436882,-0.0010908292492985863,-1.8289112916885357e-06,0.001090830782496456,0.6573655599148605,55.25117981111931,-62.875
1772747060.9343946,3.1964314866128694e-07,1.2131999327652243,-9.054316266627577,-0.1983599386664769,-1.5542842324714607,9.734392810436882,-0.0010908292492985863,-1.8289112916885357e-06,0.001090830782496456,0.6573655599148605,55.25117981111931,-62.875
1772747060.9685686,3.1964314866128694e-07,1.2131999327652243,-9.054316266627577,-0.19804475614576722,-1.5496174428707707,9.732923366274838,-0.0010926581605902748,0.0010890003380068978,-0.001090830782496456,0.6573655599148605,55.25117981111931,-62.875
1772747061.0257494,3.1964314866128694e-07,1.2131999327652243,-9.054316266627577,-0.19783500569905438,-1.5465117465229672,9.738635691014402,0.0,0.0,0.001090830782496456,1.0929787448283748,56.37691175218232,-60.75
1772747061.0543954,3.1964314866128694e-07,1.2131999327652243,-9.054316266627577,-0.19435031211417605,-1.5444393318072873,9.732401844195776,-0.001096315983173652,0.003270658836604071,-0.001090830782496456,1.0929787448283748,56.37691175218232,-60.75
1772747061.0963407,3.1964314866128694e-07,1.2131999327652243,-9.054316266627577,-0.1987102844930948,-1.5497615939539418,9.728253288774612,-0.0010890003380068978,-0.0010926581605902748,0.0,0.6554793597487442,56.3761782298955,-62.0625
1772747061.138761,3.1964314866128694e-07,1.2131999327652243,-9.054316266627577,-0.2016061889180643,-1.5566486069646337,9.725492471484229,0.0010926581605902748,-0.0010890003380068978,-0.001090830782496456,0.6554793597487442,56.3761782298955,-62.0625
1772747061.178646,3.1964314866128694e-07,1.2131999327652243,-9.054316266627577,-0.20353898945262772,-1.5578867301846158,9.727000290125147,-0.0010926581605902748,0.0010890003380068978,0.001090830782496456,1.4061070389882446,56.002436223747516,-62.5
1772747061.200316,3.1964314866128694e-07,1.2131999327652243,-9.054316266627577,-0.20353898945262772,-1.5578867301846158,9.727000290125147,-0.0010926581605902748,0.0010890003380068978,0.001090830782496456,1.4061070389882446,56.002436223747516,-62.5
1772747061.2457728,3.1964314866128694e-07,1.2131999327652243,-9.054316266627577,-0.2014857481010443,-1.5553599718619964,9.73134883829456,-0.0010908292492985863,-1.8289112916885357e-06,0.0,1.4061070389882446,56.002436223747516,-62.5
1772747061.3354883,3.1964314866128694e-07,1.2131999327652243,-9.054316266627577,-0.2001193389177743,-1.5536784424240326,9.734242748524839,0.0,0.0,-0.001090830782496456,0.4073659112979289,55.25076065552684,-61.5625
1772747061.3875391,3.1964314866128694e-07,1.2131999327652243,-9.054316266627577,-0.198586178129302,-1.562957172076257,9.737450255054355,1.8289112916885357e-06,-0.0010908292492985863,-0.002181661564992912,0.6561080931374497,56.001178756970106,-61.5625
1772747061.4650722,3.1964314866128694e-07,1.2131999327652243,-9.054316266627577,-0.19818970749189865,-1.5587342943003362,9.731612949806552,-0.0010908292492985863,-1.8289112916885357e-06,-0.001090830782496456,0.6561080931374497,56.001178756970106,-61.5625
1772747061.521702,3.1964314866128694e-07,1.2131999327652243,-9.054316266627577,-0.19775027362662959,-1.5540538077054509,9.725143089580337,-0.0010926581605902748,0.0010890003380068978,-0.002181661564992912,1.4066309834788324,55.68993666297635,-63.5625
1772747061.5455685,3.1964314866128694e-07,1.2131999327652243,-9.054316266627577,-0.19775027362662959,-1.5540538077054509,9.725143089580337,-0.0010926581605902748,0.0010890003380068978,-0.002181661564992912,1.4066309834788324,55.68993666297635,-63.5625
1772747061.5921342,3.1964314866128694e-07,1.2131999327652243,-9.054316266627577,-0.1976334223830353,-1.5528092047686615,9.72676778037096,-0.0010926581605902748,0.0010890003380068978,-0.002181661564992912,-0.34263303455286614,55.24950318874943,-62.0625
1772747061.6162286,3.1964314866128694e-07,1.2131999327652243,-9.054316266627577,-0.19755565918573725,-1.551980935417354,9.731194105650452,-0.0010890003380068978,-0.0010926581605902748,0.0,-0.34263303455286614,55.24950318874943,-62.0625
1772747061.6355608,3.1964314866128694e-07,1.2131999327652243,-9.054316266627577,-0.19749830015748898,-1.5547748384220907,9.734139775678662,-0.002183487409888861,0.0010871714267152092,-0.001090830782496456,0.6549554152581563,56.68867779066667,-62.0625
1772747061.6858208,3.1964314866128694e-07,1.2131999327652243,-9.054316266627577,-0.19746012836493207,-1.5566341496618015,9.729409862762505,-1.8289112916885357e-06,0.0010908292492985863,-0.001090830782496456,0.6549554152581563,56.68867779066667,-62.0625
1772747061.7292218,3.1964314866128694e-07,1.2131999327652243,-9.054316266627577,-0.19743472546339233,-1.5578715005219614,9.726262158553393,-0.0010908292492985863,-1.8289112916885357e-06,-0.001090830782496456,1.0954936783831963,54.876913860480734,-63.25
1772747061.7587583,3.1964314866128694e-07,1.2131999327652243,-9.054316266627577,-0.19743472546339233,-1.5578715005219614,9.726262158553393,-0.0010908292492985863,-1.8289112916885357e-06,-0.001090830782496456,1.0954936783831963,54.876913860480734,-63.25
1772747061.79918,3.1964314866128694e-07,1.2131999327652243,-9.054316266627577,-0.2041136426166187,-1.5553610536698628,9.727512508271708,0.0010908292492985863,1.8289112916885357e-06,0.001090830782496456,1.0954936783831963,54.876913860480734,-63.25
1772747061.8240032,3.1964314866128694e-07,1.2131999327652243,-9.054316266627577,-0.2052132803680408,-1.5536847708442016,9.728344602041926,1.8289112916885357e-06,-0.0010908292492985863,0.0,0.6561080931374497,56.001178756970106,-62.75
1772747061.8730972,3.1964314866128694e-07,1.2131999327652243,-9.054316266627577,-0.20929018401351054,-1.5525748318381483,9.728898351150908,-0.0010926581605902748,0.0010890003380068978,0.001090830782496456,0.6561080931374497,56.001178756970106,-62.75
1772747061.9060128,3.1964314866128694e-07,1.2131999327652243,-9.054316266627577,-0.20865260235279776,-1.55517567834499,9.729266864997154,1.8289112916885357e-06,-0.0010908292492985863,0.0,0.406108444520518,56.00075960137763,-62.5
1772747061.932777,3.1964314866128694e-07,1.2131999327652243,-9.054316266627577,-0.20822829887984717,-1.5569065126419337,9.729512106845261,-3.6578225833770713e-06,0.0021816584985971726,-0.001090830782496456,0.406108444520518,56.00075960137763,-62.5
1772747061.9644976,3.1964314866128694e-07,1.2131999327652243,-9.054316266627577,-0.20822829887984717,-1.5569065126419337,9.729512106845261,-3.6578225833770713e-06,0.0021816584985971726,-0.001090830782496456,0.406108444520518,56.00075960137763,-62.5
1772747061.9858556,3.1964314866128694e-07,1.2131999327652243,-9.054316266627577,-0.20126132413618336,-1.5547020395479707,9.729675312555646,-0.0010908292492985863,-1.8289112916885357e-06,0.001090830782496456,0.4066323890111058,55.688260040606465,-62.5
1772747062.0018907,3.1964314866128694e-07,1.2131999327652243,-9.054316266627577,-0.20126132413618336,-1.5547020395479707,9.729675312555646,-0.0010908292492985863,-1.8289112916885357e-06,0.001090830782496456,0.4066323890111058,55.688260040606465,-62.5
1772747062.0227716,3.1964314866128694e-07,1.2131999327652243,-9.054316266627577,-0.2033150942817962,-1.5532462043077526,9.729783924132779,-0.0010908292492985863,-1.8289112916885357e-06,-0.002181661564992912,0.4066323890111058,55.688260040606465,-62.5
1772747062.0378437,3.1964314866128694e-07,1.2131999327652243,-9.054316266627577,-0.19799164136027195,-1.5522661452398963,9.72985620392409,0.0,0.0,-0.002181661564992912,0.4066323890111058,55.688260040606465,-62.5
1772747062.0535483,3.1964314866128694e-07,1.2131999327652243,-9.054316266627577,-0.19799164136027195,-1.5522661452398963,9.72985620392409,0.0,0.0,-0.002181661564992912,0.4066323890111058,55.688260040606465,-62.5
1772747062.0731826,3.1964314866128694e-07,1.2131999327652243,-9.054316266627577,-0.19444894290786316,-1.551613926878215,9.72655919361047,-0.0010871714267152092,-0.002183487409888861,-0.001090830782496456,0.6561080931374497,56.001178756970106,-62.75
1772747062.0887141,3.1964314866128694e-07,1.2131999327652243,-9.054316266627577,-0.19444894290786316,-1.551613926878215,9.72655919361047,-0.0010871714267152092,-0.002183487409888861,-0.001090830782496456,0.6561080931374497,56.001178756970106,-62.75
1772747062.108904,3.1964314866128694e-07,1.2131999327652243,-9.054316266627577,-0.19209131666231985,-1.5511798828442724,9.724365070076775,-0.0010908292492985863,-1.8289112916885357e-06,0.001090830782496456,0.6561080931374497,56.001178756970106,-62.75
1772747062.1291385,3.1964314866128694e-07,1.2131999327652243,-9.054316266627577,-0.19052234273232158,-1.5508910313882731,9.726250017082386,-0.0010890003380068978,-0.0010926581605902748,-0.001090830782496456,0.6561080931374497,56.001178756970106,-62.75
1772747062.1461158,3.1964314866128694e-07,1.2131999327652243,-9.054316266627577,-0.18947820810849486,-1.550698803970988,9.730849539965702,0.0,0.0,0.0,1.782363978691053,55.253066011285426,-63.25
1772747062.1646008,3.1964314866128694e-07,1.2131999327652243,-9.054316266627577,-0.18947820810849486,-1.550698803970988,9.730849539965702,0.0,0.0,0.0,1.782363978691053,55.253066011285426,-63.25
1772747062.1796076,3.1964314866128694e-07,1.2131999327652243,-9.054316266627577,-0.18878334818008624,-1.5505708787721055,9.73391047106451,-0.0010890003380068978,-0.0010926581605902748,0.001090830782496456,1.782363978691053,55.253066011285426,-63.25
1772747062.197831,3.1964314866128694e-07,1.2131999327652243,-9.054316266627577,-0.18878334818008624,-1.5505708787721055,9.73391047106451,-0.0010890003380068978,-0.0010926581605902748,0.001090830782496456,1.782363978691053,55.253066011285426,-63.25
1772747062.2280269,3.1964314866128694e-07,1.2131999327652243,-9.054316266627577,-0.18832092665982428,-1.5504857459812675,9.729257263103289,0.0010908292492985863,1.8289112916885357e-06,0.0,1.782363978691053,55.253066011285426,-63.25
1772747062.2507572,3.1964314866128694e-07,1.2131999327652243,-9.054316266627577,-0.18800758181455857,-1.5537741980656172,9.726160605184834,0.0,0.0,-0.001090830782496456,0.4054797111318125,56.37575907430303,-62.5
1772747062.2741513,3.1964314866128694e-07,1.2131999327652243,-9.054316266627577,-0.1911441613259824,-1.5559682346824535,9.724099813932039,3.6578225833770713e-06,-0.0021816584985971726,-0.002181661564992912,0.4054797111318125,56.37575907430303,-62.5
1772747062.3133912,3.1964314866128694e-07,1.2131999327652243,-9.054316266627577,-0.19323151995294605,-1.557428341541963,9.72272838037385,0.0,0.0,0.0,0.4066323890111058,55.688260040606465,-62.5
1772747062.3430815,3.1964314866128694e-07,1.2131999327652243,-9.054316266627577,-0.19323151995294605,-1.557428341541963,9.72272838037385,0.0,0.0,0.0,0.4066323890111058,55.688260040606465,-62.5
1772747062.3622763,3.1964314866128694e-07,1.2131999327652243,-9.054316266627577,-0.19462063380186664,-1.5584000263465043,9.731851041782749,5.4867338750656074e-06,-0.0032724877478957594,0.0,0.4066323890111058,55.688260040606465,-62.5
1772747062.3894153,3.1964314866128694e-07,1.2131999327652243,-9.054316266627577,-0.19219435805612975,-1.5623861702460349,9.737922071043567,-0.0010890003380068978,-0.0010926581605902748,-0.001090830782496456,0.4066323890111058,55.688260040606465,-62.5
1772747062.4031382,3.1964314866128694e-07,1.2131999327652243,-9.054316266627577,-0.190585307139736,-1.5616937974773704,9.735272049784161,0.0010908292492985863,1.8289112916885357e-06,-0.002181661564992912,0.6543266818694509,57.06367726359206,-62.875
1772747062.4158294,3.1964314866128694e-07,1.2131999327652243,-9.054316266627577,-0.19619910725134806,-1.5645893551180283,9.733508490238703,0.0010926581605902748,-0.0010890003380068978,-0.001090830782496456,0.6543266818694509,57.06367726359206,-62.875
1772747062.4354725,3.1964314866128694e-07,1.2131999327652243,-9.054316266627577,-0.19619910725134806,-1.5645893551180283,9.733508490238703,0.0010926581605902748,-0.0010890003380068978,-0.001090830782496456,0.6543266818694509,57.06367726359206,-62.875
1772747062.459883,3.1964314866128694e-07,1.2131999327652243,-9.054316266627577,-0.1999406370044879,-1.5631712093767312,9.732334861061453,0.0,0.0,0.001090830782496456,0.6543266818694509,57.06367726359206,-62.875
1772747062.505087,3.1964314866128694e-07,1.2131999327652243,-9.054316266627577,-0.2024361917486948,-1.5588823422219666,9.73489893566161,-7.315645166754143e-06,0.004363316997194345,0.001090830782496456,0.6554793597487442,56.3761782298955,-61.25
1772747062.5337272,3.1964314866128694e-07,1.2131999327652243,-9.054316266627577,-0.2040969555537914,-1.5560281490402563,9.736605298665424,0.0,0.0,-0.001090830782496456,0.6554793597487442,56.3761782298955,-61.25
1772747062.5529208,3.1964314866128694e-07,1.2131999327652243,-9.054316266627577,-0.201857068308479,-1.5541231068721368,9.737740864183138,-0.0010908292492985863,-1.8289112916885357e-06,0.001090830782496456,0.4073659112979289,55.25076065552684,-63.25
1772747062.57246,3.1964314866128694e-07,1.2131999327652243,-9.054316266627577,-0.20036644836790357,-1.5528553225899686,9.73515145864276,-0.0021816584985971726,-3.6578225833770713e-06,0.0,0.4073659112979289,55.25076065552684,-63.25
1772747062.5958712,3.1964314866128694e-07,1.2131999327652243,-9.054316266627577,-0.1993744574487664,-1.5520116263122639,9.736773349888512,-3.6578225833770713e-06,0.0021816584985971726,0.0,0.4073659112979289,55.25076065552684,-63.25
1772747062.6105115,3.1964314866128694e-07,1.2131999327652243,-9.054316266627577,-0.1993744574487664,-1.5520116263122639,9.736773349888512,-3.6578225833770713e-06,0.0021816584985971726,0.0,0.4073659112979289,55.25076065552684,-63.25
1772747062.6250412,3.1964314866128694e-07,1.2131999327652243,-9.054316266627577,-0.19536919156768837,-1.5514445473750385,9.741197812102168,0.0,0.0,0.001090830782496456,0.6561080931374497,56.001178756970106,-62.0625
1772747062.641075,3.1964314866128694e-07,1.2131999327652243,-9.054316266627577,-0.19604323038212107,-1.5544178781717766,9.744142242280875,-0.001096315983173652,0.003270658836604071,-0.001090830782496456,0.6561080931374497,56.001178756970106,-62.0625
1772747062.6565716,3.1964314866128694e-07,1.2131999327652243,-9.054316266627577,-0.19604323038212107,-1.5544178781717766,9.744142242280875,-0.001096315983173652,0.003270658836604071,-0.001090830782496456,0.6561080931374497,56.001178756970106,-62.0625
1772747062.6723475,3.1964314866128694e-07,1.2131999327652243,-9.054316266627577,-0.19649179568361916,-1.5563965966027247,9.739411504258724,0.0021816584985971726,3.6578225833770713e-06,0.0,0.6561080931374497,56.001178756970106,-62.0625
1772747062.685493,3.1964314866128694e-07,1.2131999327652243,-9.054316266627577,-0.19649179568361916,-1.5563965966027247,9.739411504258724,0.0021816584985971726,3.6578225833770713e-06,0.0,0.6561080931374497,56.001178756970106,-62.0625
1772747062.718279,3.1964314866128694e-07,1.2131999327652243,-9.054316266627577,-0.1967903108809634,-1.5577134116147875,9.73291813924347,-0.0010890003380068978,-0.0010926581605902748,0.0,1.0929787448283748,56.37691175218232,-62.5
1772747062.7356431,3.1964314866128694e-07,1.2131999327652243,-9.054316266627577,-0.196994577899281,-1.5552446302898708,9.72859687736146,3.6578225833770713e-06,-0.0021816584985971726,0.001090830782496456,1.0929787448283748,56.37691175218232,-62.5
1772747062.7508318,3.1964314866128694e-07,1.2131999327652243,-9.054316266627577,-0.20382072932947304,-1.5536129008744697,9.725721125850638,3.6578225833770713e-06,-0.0021816584985971726,-0.001090830782496456,1.0929787448283748,56.37691175218232,-62.5
1772747062.792483,3.1964314866128694e-07,1.2131999327652243,-9.054316266627577,-0.20836345685315807,-1.552527003176132,9.723807345344436,1.8289112916885357e-06,-0.0010908292492985863,0.001090830782496456,-0.03139094055911243,56.00002607909081,-62.5
1772747062.814861,3.1964314866128694e-07,1.2131999327652243,-9.054316266627577,-0.20836345685315807,-1.552527003176132,9.723807345344436,1.8289112916885357e-06,-0.0010908292492985863,0.001090830782496456,-0.03139094055911243,56.00002607909081,-62.5
1772747062.8511183,3.1964314866128694e-07,1.2131999327652243,-9.054316266627577,-0.2113809827854608,-1.5551494573938174,9.729223969210526,0.001099973805757029,-0.005452317335201243,0.007635815477475192,-0.03139094055911243,56.00002607909081,-62.5
1772747062.8713663,-0.02092000801815019,1.2115436328874476,-9.0545360710289,-0.2066988985741211,-1.5568834544027175,9.729483560178437,-0.0032724877478957594,-5.4867338750656074e-06,-0.01090830782496456,-0.03139094055911243,56.00002607909081,-62.0625
1772747062.91433,-0.013946567679001886,1.212095741753921,-9.054462870122025,-0.22367609982419667,-1.5446906329542065,9.72965631506776,0.006550462229666584,-0.003261514280145628,0.01090830782496456,-0.03139094055911243,56.00002607909081,-62.0625
1772747062.931935,-0.013946567679001886,1.212095741753921,-9.054462870122025,-0.22367609982419667,-1.5446906329542065,9.72965631506776,0.006550462229666584,-0.003261514280145628,0.01090830782496456,-0.03139094055911243,56.00002607909081,-62.0625
1772747062.9578543,-0.013946567679001886,1.212095741753921,-9.054462870122025,-0.22159380958573005,-1.5365540125264894,9.729771281516808,-0.003277974481770825,0.0032670010140206937,-0.002181661564992912,-0.03139094055911243,56.00002607909081,-63.5625
1772747062.999693,0.00697376652476262,1.2137520148854644,-9.054242864043161,-0.2201968517145001,-1.5378293965351633,9.71981245528243,0.007648607124131925,-0.007623002366048286,0.019634954084936207,-0.03139094055911243,56.00002607909081,-63.5625
1772747063.019209,0.00697376652476262,1.2137520148854644,-9.054242864043161,-0.2201968517145001,-1.5378293965351633,9.71981245528243,0.007648607124131925,-0.007623002366048286,0.019634954084936207,-0.03139094055911243,56.00002607909081,-63.5625
1772747063.045464,3.1964314866128694e-07,1.2131999327652243,-9.054316266627577,-0.21926719185623847,-1.5386781503459628,9.71318496767083,-0.003285290126937579,0.00763031801121504,-0.014180800172453928,0.6554793597487442,56.3761782298955,-62.5
1772747063.0637035,-0.03501294269288639,1.210411776010912,-9.06862900570364,-0.16171439263995985,-1.5792889262787213,9.69873911357724,-0.012008266298742893,0.005434028222284358,-0.018544123302439753,0.6554793597487442,56.3761782298955,-62.5
1772747063.09586,-0.03501294269288639,1.210411776010912,-9.06862900570364,-0.16171439263995985,-1.5792889262787213,9.69873911357724,-0.012008266298742893,0.005434028222284358,-0.018544123302439753,0.6554793597487442,56.3761782298955,-62.5
1772747063.1259646,-0.048188997640697374,1.202377796940228,-9.047840137327348,-0.1803533771231236,-1.5629238972513506,9.759372904902426,0.020745873760881717,-0.011964372427742368,-0.009817477042468103,1.7804777785249368,56.37806443006162,-62.5
1772747063.176424,-0.08356134177495933,1.1995021329614546,-9.09701437014476,-0.16592364668177728,-1.595474676403582,9.79972401570551,-0.028356073747888184,-0.0033200394414796613,-0.014180800172453928,1.7804777785249368,56.37806443006162,-62.5
1772747063.2142198,-0.02128755804160309,1.197486265675561,-9.195086679083436,-0.0898098366220718,-1.5768702543875972,9.83441240767778,-0.03385045604279826,0.020669059486630798,0.038179077387375956,1.0936074782170802,56.00191227925693,-62.0625
1772747063.2475066,-0.02128755804160309,1.197486265675561,-9.195086679083436,-0.0898098366220718,-1.5768702543875972,9.83441240767778,-0.03385045604279826,0.020669059486630798,0.038179077387375956,1.0936074782170802,56.00191227925693,-62.0625
1772747063.2653918,0.15352277988760005,1.2045266634252172,-9.200228440443931,-0.04553452466177782,-1.5578233704034117,9.8262461846051,-0.009806489775937146,-0.0065614356974167155,0.09926560120717749,-0.03139094055911243,56.00002607909081,-63.25
1772747063.3066921,0.43861893479110775,1.2208871348648769,-9.323237942228793,0.010646188992465846,-1.51834215792137,9.834192101202198,-0.10577203004483743,-0.023084818630564104,0.16907877128695067,-0.03139094055911243,56.00002607909081,-63.25
1772747063.3460014,0.43861893479110775,1.2208871348648769,-9.323237942228793,0.010646188992465846,-1.51834215792137,9.834192101202198,-0.10577203004483743,-0.023084818630564104,0.16907877128695067,-0.03139094055911243,56.00002607909081,-63.25
1772747063.3799584,1.9656082632141523,1.4112757507149642,-9.467073563758026,0.054387531013891946,-1.291350214730961,9.876276248716376,-0.059948057017838355,-0.028462150602806116,0.35015668118136234,1.0929787448283748,56.37691175218232,-62.0625
1772747063.406681,3.670950868895494,2.05844623857303,-9.247406442124836,0.09353222652331541,-1.1402727867365385,9.924353449020247,0.08697371413721675,0.1746789927911089,0.6992225315802283,1.0929787448283748,56.37691175218232,-62.0625
1772747063.423691,3.670950868895494,2.05844623857303,-9.247406442124836,0.09353222652331541,-1.1402727867365385,9.924353449020247,0.08697371413721675,0.1746789927911089,0.6992225315802283,1.0929787448283748,56.37691175218232,-62.0625
1772747063.4448564,5.082833820792197,2.628414658691668,-9.05458727833468,0.11968353691406478,-1.099944372153525,10.056701639984537,0.09019316345765355,0.206318527754643,0.8966629032120869,1.4035921054334228,57.502434115449105,-61.25
1772747063.4693286,5.082833820792197,2.628414658691668,-9.05458727833468,0.11968353691406478,-1.099944372153525,10.056701639984537,0.09019316345765355,0.206318527754643,0.8966629032120869,1.4035921054334228,57.502434115449105,-61.25
1772747063.5065062,7.351585104238697,3.2327383497925655,-8.623585126934461,0.14715030531239226,-1.089814972307368,10.144777882645108,0.1088031015022303,0.16707976627185256,1.0810133054539879,1.4035921054334228,57.502434115449105,-61.25
1772747063.5281198,9.874698663730847,3.8897254065272437,-8.025521891258636,0.1454650521168773,-1.146664653904752,10.072932281674166,0.23765080562117338,0.08984670110407218,1.1846422297911512,6.152432751275831,58.1978971054026,-63.25
1772747063.5403295,11.827078503966984,4.2324441285358,-7.50765099476025,0.024099154388908365,-1.2917428117445353,9.857864251429984,0.23117532875446603,0.048384216162975766,1.1824605682261582,6.152432751275831,58.1978971054026,-63.25
1772747063.5590792,13.155453179577611,4.336554803130069,-7.2444867565319395,-0.056668494803144974,-1.3882907051576998,9.661217092452684,0.17891794382046844,-0.012790009539746117,1.1966413683986121,6.152432751275831,58.1978971054026,-63.25
1772747063.618644,15.886254847795655,4.293775132383237,-7.02680018853496,-0.13048910514063958,-1.4525759006482337,9.530350604845992,0.012246024766662403,-0.14724183063110058,1.22500296874352,7.654316843143538,57.07541362018123,-65.25
1772747063.6552181,18.435234734565853,4.316558740208323,-6.901339798165077,-0.22307424531794137,-1.5121554255213194,9.44660553092551,-0.023817181266691738,-0.1080323317289772,1.0875582901489667,7.654316843143538,57.07541362018123,-65.25
1772747063.694384,20.76717018028447,4.5044982647998095,-6.881968215616375,-0.2846886218621533,-1.5518049337774564,9.484537247530143,-0.09158576307008073,-0.026333530531667912,1.0428342280666119,9.903580158409099,57.516685405593094,-68.0
1772747063.7161222,21.890963055252758,4.696546195581086,-6.928307328762853,-0.3089835916137126,-1.5681278751453256,9.596753285595794,-0.12336795311436652,0.06197060023405863,1.0210176124166828,9.903580158409099,57.516685405593094,-68.0
1772747063.7335627,21.890963055252758,4.696546195581086,-6.928307328762853,-0.3089835916137126,-1.5681278751453256,9.596753285595794,-0.12336795311436652,0.06197060023405863,1.0210176124166828,9.903580158409099,57.516685405593094,-68.0
1772747063.7563665,23.616384901491735,4.994866816682025,-7.067574802246387,-0.31180484550286247,-1.5588975342960254,9.79520093856402,-0.19423893391552424,0.04221679451272431,1.0733774899765127,9.903580158409099,57.516685405593094,-68.0
1772747063.7830544,26.139826132908723,5.40483086752682,-7.279796683745485,-0.28697758729654793,-1.5192589076009644,9.92726563480884,-0.19750776384083663,0.04002964928025207,1.150826475533761,12.90179453054428,58.5842137793247,-68.875
1772747063.8124914,27.46762103523839,5.4900027835377285,-7.368379344922743,-0.2403549697370977,-1.4894842609201533,9.991737432949213,-0.19195119856200912,-0.021047644124010324,1.2162763224835484,12.90179453054428,58.5842137793247,-68.875
1772747063.8286839,29.589727718395828,5.414716359324334,-7.509427671244607,-0.2060447249346903,-1.4328677806073258,9.971085571975387,-0.21151296859771615,-0.06471373449920419,1.2719086923908676,12.90179453054428,58.5842137793247,-68.875
1772747063.84151,29.589727718395828,5.414716359324334,-7.509427671244607,-0.2060447249346903,-1.4328677806073258,9.971085571975387,-0.21151296859771615,-0.06471373449920419,1.2719086923908676,12.90179453054428,58.5842137793247,-68.875
1772747063.8579843,31.062616379299506,5.334798996180832,-7.538714454093725,-0.16986486320131744,-1.3750970694162494,9.940616430657112,-0.15685628472141044,-0.13334453164043067,1.31117860056074,14.40179242224587,58.58672871287952,-68.5
1772747063.8908024,33.9511553124113,5.078383378328328,-7.529259705512637,-0.1458268287971225,-1.3132355574201184,9.92033955747241,-0.114182262385764,-0.21181291004955305,1.2740903539558606,14.40179242224587,58.58672871287952,-68.5
1772747063.9156134,35.386482322654885,4.90958025108645,-7.540789187274358,-0.19673192553670782,-1.272179582007426,9.809837285363244,-0.11511214744139399,-0.30780771289912034,1.263182046130896,17.961248536991736,60.40519913254497,-70.5
1772747063.9410741,37.59738145484384,4.48868447707177,-7.479870442155301,-0.26409341976099054,-1.2248427318528157,9.736299257665854,-0.07557161559547497,-0.4691846009888104,1.2948161388232933,17.961248536991736,60.40519913254497,-70.5
1772747063.9581528,37.59738145484384,4.48868447707177,-7.479870442155301,-0.26409341976099054,-1.2248427318528157,9.736299257665854,-0.07557161559547497,-0.4691846009888104,1.2948161388232933,17.961248536991736,60.40519913254497,-70.5
1772747063.9759636,39.95645112145333,3.892100591540905,-7.477038013514609,-0.31226684869571264,-1.1933461953513047,9.841235660243527,-0.1266906195865901,-0.5587185582620038,1.3929909092479742,17.961248536991736,60.40519913254497,-70.5
1772747063.9894338,41.64114313742733,3.4706664504275606,-7.559790932221304,-0.3677975614500899,-1.138973791516174,9.911069663942545,-0.18556064973417166,-0.5795430752084282,1.4693490640227262,19.461875162082034,60.0327145931744,-71.6875
1772747064.0047584,41.64114313742733,3.4706664504275606,-7.559790932221304,-0.3677975614500899,-1.138973791516174,9.911069663942545,-0.18556064973417166,-0.5795430752084282,1.4693490640227262,19.461875162082034,60.0327145931744,-71.6875
1772747064.0255785,43.37996219676475,3.0666015595368057,-7.718963452781408,-0.5251764826730706,-1.1029914697516994,9.860535173795043,-0.23031391153608072,-0.56216479258261,1.511891464540088,19.461875162082034,60.0327145931744,-71.6875
1772747064.0388823,46.04331298888591,2.508042032859676,-7.880882460173154,-0.6297477505247935,-1.176053739730363,9.826905035109124,-0.17470356675735307,-0.5489815671151508,1.5424347264499887,19.461875162082034,60.0327145931744,-71.6875
1772747064.055722,46.04331298888591,2.508042032859676,-7.880882460173154,-0.6297477505247935,-1.176053739730363,9.826905035109124,-0.17470356675735307,-0.5489815671151508,1.5424347264499887,19.461875162082034,60.0327145931744,-71.6875
1772747064.078527,49.44498573536423,2.1185942149631383,-8.042471928382144,-0.6725779050972581,-1.224630996329185,9.848011005682062,-0.1279881158118495,-0.4354566820025552,1.5151639568875774,17.649901654099867,59.71717615435782,-73.6875
1772747064.1012204,51.7920655827251,2.2190007076947156,-8.122326505058682,-0.7010808945210577,-1.2569586179521892,9.862056793329213,-0.10340930932836309,-0.13107325648854076,1.401717555507946,17.649901654099867,59.71717615435782,-73.6875
1772747064.119577,51.7920655827251,2.2190007076947156,-8.122326505058682,-0.7010808945210577,-1.2569586179521892,9.862056793329213,-0.10340930932836309,-0.13107325648854076,1.401717555507946,17.649901654099867,59.71717615435782,-73.6875
1772747064.1362243,53.31719545431127,2.3773870217733157,-8.14571659462694,-0.7165359539041378,-1.3788198906996927,9.690768075911416,-0.0816988011973093,-0.06776858180338899,1.3886275861179884,17.649901654099867,59.71717615435782,-73.6875
1772747064.1551654,54.76392217189031,2.6340977949000544,-8.138106329574875,-0.7268211232792521,-1.4599172064335446,9.539981119109704,-0.03502175738893114,0.06866371754447691,1.299179461953279,18.398119188682664,60.7809321277572,-74.875
1772747064.2057557,57.442529278275636,3.3332497194504307,-8.100701126714142,-0.7069834514079207,-1.4670101981459052,9.329245397417301,-0.06460582873299456,0.14715404288909953,1.2260937995260166,18.398119188682664,60.7809321277572,-74.875
1772747064.253867,60.913872118196075,4.165274742316404,-7.905332264531351,-0.6571201290554762,-1.3913862433805055,9.165587346752027,0.007443769059462809,0.1145498735553934,1.2893619849108109,21.401049061233135,59.03596445454832,-76.5
1772747064.3111248,62.91507330442927,4.5806302371721,-7.843235775356871,-0.6239366450397318,-1.3410593462590585,9.0566747422145,-0.07105752975290995,0.0915107777071215,1.2217304763960306,21.401049061233135,59.03596445454832,-76.5
1772747064.3608327,62.91507330442927,4.5806302371721,-7.843235775356871,-0.6239366450397318,-1.3410593462590585,9.0566747422145,-0.07105752975290995,0.0915107777071215,1.2217304763960306,21.401049061233135,59.03596445454832,-76.5
1772747064.4206872,69.95091948199884,5.289910619554002,-7.20346803253196,-0.6984419128283841,-1.369034207410417,9.369587253990057,-0.07098437330124241,0.047877607735178046,0.6392268385429232,26.15041365156613,59.41892788373065,-79.25
1772747064.4985266,71.31123678692691,5.377500162359668,-7.3118788414759335,-0.5679091082087376,-1.2658321776797863,9.557051577750943,-0.12317043069486415,-0.05583895869018871,0.5988660995905544,27.151040979422564,59.045605033175136,-81.5625
1772747064.555051,74.6523227968644,4.604728027697064,-7.882059746637659,-0.4810409848813325,-1.197152379736261,9.638320538904953,-0.25260601345789147,-0.2785857659908113,0.7646723785300157,27.151040979422564,59.045605033175136,-81.5625
1772747064.5950005,76.87491921789227,4.127725083535315,-8.271085658119398,-0.5301288226514113,-1.2385989952073213,9.658953007645973,-0.23296011350276677,-0.2850978210833524,0.7755806863549802,27.585606275354902,60.79633609578048,-83.25
1772747064.6477606,78.81161914997195,3.6987297910089487,-8.302610584061869,-0.5627962303403216,-1.2661812548142806,9.68940924364994,-0.05739695843832009,-0.2488060011385372,0.65558930028037,27.585606275354902,60.79633609578048,-83.25
1772747064.736628,81.14138888007959,3.2027463177148077,-8.386727085617421,-0.5978771938372369,-1.3079751234647552,9.692951969955535,-0.04988369074977312,-0.1757076390564901,0.4505131131710363,24.648110404105953,60.791411017568954,-87.6875
1772747064.757306,81.61259743484194,3.0219433575716903,-8.391881460486532,-0.7215034829755651,-1.37944312193063,9.668548721078508,-0.017124063956273444,-0.19637852745441256,0.2552544031041707,24.648110404105953,60.791411017568954,-87.6875
1772747064.8149235,82.04853579144353,3.0774565669812897,-8.47151061844972,-0.803775397400986,-1.4270042765598165,9.652308631552998,-0.017389256093568284,-0.038208286306117535,0.18762289458939044,23.896853991477748,61.540152496642335,-88.0625
1772747064.8476114,82.55561799179229,3.402139638483951,-8.47745453793978,-0.8249912400202588,-1.5087762138663023,9.664916815338694,-0.015469131909682573,0.11778395416616369,0.2530727415391778,23.896853991477748,61.540152496642335,-88.0625
1772747064.8972406,83.34849984308688,4.143158617613664,-8.252055565074999,-0.8156663548017042,-1.579880800295834,9.730174319829862,0.11206095795979255,0.17581188700011635,0.2628902185816459,23.895596524700338,62.29015144249313,-90.0625
1772747064.9306374,83.85033083573485,4.473338029767158,-8.027298653786444,-0.7459037147470681,-1.6270935469811663,9.773602460094645,0.11318836543492491,0.1539971309254363,0.32834006553143325,23.895596524700338,62.29015144249313,-90.0625
1772747064.9579148,84.25189550574285,4.710921604926718,-7.888530687229594,-0.5791713831582929,-1.5880639497722653,9.769052285243552,0.09571315051064726,0.1670578193363523,0.39924406639370286,25.77122262271603,61.91829563651126,-90.0625
1772747065.0044842,85.32964155450274,5.057699810918794,-7.468999174228871,-0.4682409214537358,-1.5453646537906252,9.7258828542211,0.12418810349249519,0.09947395757342385,0.4079707126536745,25.77122262271603,61.91829563651126,-90.0625
1772747065.0227554,85.7247738285962,5.059523590318936,-7.292120360721431,-0.4178953807837037,-1.4801918316588347,9.697154080109799,0.12213081096173285,0.025293910798536604,0.34579335805137656,25.77122262271603,61.91829563651126,-90.0625
1772747065.0436635,85.7247738285962,5.059523590318936,-7.292120360721431,-0.4178953807837037,-1.4801918316588347,9.697154080109799,0.12213081096173285,0.025293910798536604,0.34579335805137656,25.77122262271603,61.91829563651126,-90.0625
1772747065.0687969,86.22130440774897,4.962163848391994,-7.101569688573618,-0.40111652089262106,-1.436848089003845,9.738247412591912,0.14076635376439323,-0.029216460174434012,0.2748893571891069,28.398733866748636,60.42269887853061,-90.0
1772747065.1035328,86.55911455971444,4.8178467377155965,-6.9623171210195505,-0.4099200662970648,-1.4682488894848138,9.765594566316157,0.1353451279211507,-0.04886053121826701,0.20398535632683726,28.398733866748636,60.42269887853061,-90.0
1772747065.136715,86.8747523856256,4.78868548561891,-6.704520967103599,-0.44245545613015796,-1.5393672444327735,9.72023666919285,0.10039835589517879,-0.024920812895032143,0.12980886311707826,28.651038871124154,59.048119966729956,-92.75
1772747065.1584973,86.8747523856256,4.78868548561891,-6.704520967103599,-0.44245545613015796,-1.5393672444327735,9.72023666919285,0.10039835589517879,-0.024920812895032143,0.12980886311707826,28.651038871124154,59.048119966729956,-92.75
1772747065.1841092,86.9673303366192,4.6213542432563965,-6.864142458899653,-0.48751192668132515,-1.5934251886417032,9.6900514953382,0.02104398630142695,-0.18976954006341193,0.007635815477475192,28.651038871124154,59.048119966729956,-92.75
1772747065.2008421,86.92507424995829,4.481109607777916,-7.015476174534431,-0.5342332565258934,-1.6227379750802193,9.669963599328415,-0.036974801976067256,-0.06769359644042977,-0.05672320068981571,28.651038871124154,59.048119966729956,-92.75
1772747065.2142541,86.82184115073291,4.371647199648595,-7.164947293969796,-0.5486507209997815,-1.6121113015132686,9.690046446003599,-0.08823828995922574,-0.0710520430190349,-0.10690141668465268,28.64988619324486,59.73561900042652,-94.5
1772747065.228051,86.82184115073291,4.371647199648595,-7.164947293969796,-0.5486507209997815,-1.6121113015132686,9.690046446003599,-0.08823828995922574,-0.0710520430190349,-0.10690141668465268,28.64988619324486,59.73561900042652,-94.5
1772747065.2438917,86.6452494057182,4.2010045013362545,-7.390152546927938,-0.5917244950556837,-1.5883699188250826,9.710101579540476,-0.10677141372955158,-0.07762811000678511,-0.11126473981463851,28.64988619324486,59.73561900042652,-94.5
1772747065.2657108,86.52401269742504,4.069480774593314,-7.5489284408760575,-0.6103823319529236,-1.5558279333590774,9.800385616147093,-0.1340055667361825,-0.09949041777504905,-0.12544553998709243,28.64988619324486,59.73561900042652,-94.5
1772747065.2977993,86.52401269742504,4.069480774593314,-7.5489284408760575,-0.6103823319529236,-1.5558279333590774,9.800385616147093,-0.1340055667361825,-0.09949041777504905,-0.12544553998709243,28.64988619324486,59.73561900042652,-94.5
1772747065.33167,86.30219269586486,3.737655914416548,-7.862967307035068,-0.6228045224754604,-1.5308264985435904,9.860468633970024,-0.11108352121057864,-0.10817864463231228,-0.09272061651219876,27.962911104038884,59.42196676177606,-94.75
1772747065.376088,86.30213684827325,3.6313520128825743,-7.933872394883363,-0.5843183722717068,-1.467278306031358,9.84358631213547,-0.029403009126186243,-0.029501770335937424,0.013089969389957472,27.962911104038884,59.42196676177606,-94.75
1772747065.4252996,86.46570347341839,3.594876337748482,-7.867580900324796,-0.5587399201642854,-1.4049170517603493,9.802245310176591,0.018538610504200907,0.0033035792398544645,0.09490227807719166,27.14737336798845,61.233101958573286,-96.5
1772747065.45613,86.61811913425026,3.294793743577668,-7.7881338003328935,-0.5317497268692766,-1.3232582241286102,9.734591994694375,-0.008600439115262181,-0.07528184949193596,0.05235987755982989,27.14737336798845,61.233101958573286,-96.5
1772747065.4877172,86.65249103302607,3.1583312246524926,-7.782707215311222,-0.5237560738792142,-1.3090732960637992,9.729710809465846,-0.0020408323291371553,-0.08399751001857454,0.001090830782496456,26.89737371937152,61.23268280298082,-96.5
1772747065.5125942,86.65785013604327,3.063249483807823,-7.824149723517965,-0.508451542494376,-1.2695105963744298,9.686321094734838,-0.04459231760824047,-0.07861469131245745,-0.008726646259971648,26.89737371937152,61.23268280298082,-96.5
1772747065.5344985,86.65591830549435,2.927734461714141,-7.874449080814539,-0.4377741972628469,-1.410336459154185,9.751108852081169,-0.028226221046178297,-0.0807689161416793,-0.02181661564992912,26.89737371937152,61.23268280298082,-96.5
1772747065.5486188,86.65591830549435,2.927734461714141,-7.874449080814539,-0.4377741972628469,-1.410336459154185,9.751108852081169,-0.028226221046178297,-0.0807689161416793,-0.02181661564992912,26.89737371937152,61.23268280298082,-96.5
1772747065.566493,86.64261770411714,2.816334103440328,-7.920807614464599,-0.3907448220180602,-1.500709390700492,9.723977035014773,-0.029287787714809863,-0.09822401304174837,-0.031634092692397225,26.459874334291886,61.231949280693996,-98.5
1772747065.593824,86.61171921400694,2.6793632929822806,-7.951962736917081,-0.37951794017914037,-1.560885218047476,9.77616845969305,0.009894277517938196,-0.04579836826891543,-0.020725784867432664,26.459874334291886,61.231949280693996,-98.5
1772747065.6170816,169.25615122915536,37.201699173657715,138.02514700247886,-0.37204657572782673,-1.6009315589388573,9.740653923946322,-0.03384862713150657,0.01957823023733221,-0.04254240051736178,26.459874334291886,61.231949280693996,-98.5
1772747065.6399653,169.25615122915536,37.201699173657715,138.02514700247886,-0.37204657572782673,-1.6009315589388573,9.740653923946322,-0.03384862713150657,0.01957823023733221,-0.04254240051736178,26.459874334291886,61.231949280693996,-98.5
1772747065.6536546,86.56735266185372,2.6766717746879136,-7.943382459341334,-0.2868423744123851,-1.5973413846653823,9.706984062008274,0.022894611856228497,0.007674211882215565,0.02181661564992912,26.146222095641427,61.91892436989997,-96.5
1772747065.6714685,86.65228299047372,2.678296035247149,-7.916417762166917,-0.23008945382818735,-1.6250581268421715,9.684577145005505,0.01963858430995793,-0.0021487380953467794,0.05345070834232634,26.146222095641427,61.91892436989997,-96.5
1772747065.6857405,86.65228299047372,2.678296035247149,-7.916417762166917,-0.23008945382818735,-1.6250581268421715,9.684577145005505,0.01963858430995793,-0.0021487380953467794,0.05345070834232634,26.146222095641427,61.91892436989997,-96.5
1772747065.7002406,86.6972790296397,2.681908995158411,-7.8953837560306726,-0.27939475410227466,-1.5834372037597773,9.716497155944298,0.019655044511583127,-0.011966201339034057,0.038179077387375956,26.146222095641427,61.91892436989997,-96.5
1772747065.7146406,86.73332782225556,2.669876839111426,-7.879036121198503,-0.3122293146148602,-1.542358516361991,9.737739566654179,0.0131118979270833,-0.013068004056082775,0.020725784867432664,27.146849423497862,61.54560151934445,-96.5
1772747065.7322493,86.73332782225556,2.669876839111426,-7.879036121198503,-0.3122293146148602,-1.542358516361991,9.737739566654179,0.0131118979270833,-0.013068004056082775,0.020725784867432664,27.146849423497862,61.54560151934445,-96.5
1772747065.7551882,86.74040988296686,2.635659796877653,-7.8831424753993335,-0.2671782077367737,-1.514908938995405,9.74518593027369,-0.004343198972985771,-0.012006437387451205,0.008726646259971648,27.146849423497862,61.54560151934445,-96.5
1772747065.7945495,86.73275637695453,2.5838403849977887,-7.941046734027851,-0.23714111447206315,-1.5300926219463813,9.750141402081143,1.0973467750131215e-05,-0.006544975495791519,-0.002181661564992912,25.771851356104737,61.543296163585865,-98.5
1772747065.818476,86.73275637695453,2.5838403849977887,-7.941046734027851,-0.23714111447206315,-1.5300926219463813,9.750141402081143,1.0973467750131215e-05,-0.006544975495791519,-0.002181661564992912,25.771851356104737,61.543296163585865,-98.5
1772747065.8508291,86.72859453535821,2.5467952897278194,-8.014450594491793,-0.23720558100730216,-1.5502661652890846,9.736713654676159,0.015275267312763588,-0.0021560537405135335,-0.013089969389957472,25.771851356104737,61.543296163585865,-98.5
1772747065.874839,86.69463261628358,2.4540366225803627,-8.051946643167684,-0.2372428742772471,-1.5670365400360655,9.747848309019824,0.03490287815497139,0.002240183659931206,-0.001090830782496456,26.896221041492225,61.92018183667738,-98.0625
1772747065.9158394,86.70156226381506,2.4462739778857028,-7.991981579232119,-0.25064812055443,-1.5782194710492934,9.755258297103294,0.0185239792138674,0.012030213234243156,-0.013089969389957472,26.896221041492225,61.92018183667738,-98.0625
1772747065.9338338,86.70156226381506,2.4462739778857028,-7.991981579232119,-0.25064812055443,-1.5782194710492934,9.755258297103294,0.0185239792138674,0.012030213234243156,-0.013089969389957472,26.896221041492225,61.92018183667738,-98.0625
1772747065.9617016,86.70104730015763,2.370994482101745,-8.02466227487242,-0.21278253203923153,-1.558822211824161,9.8371271306662,0.001120091829965603,-0.017451439077485694,0.02181661564992912,26.459874334291886,61.231949280693996,-96.5
1772747065.99265,86.7202333078239,2.3714751557214453,-8.053900671876043,-0.25448554598184436,-1.5460257222737837,9.89160992486752,-0.026190875450916206,0.006501081624790994,0.01090830782496456,26.459874334291886,61.231949280693996,-96.5
1772747066.0247757,86.68933970718523,2.3947934374677504,-8.03054981075817,-0.28212626612509856,-1.6044119415373004,9.844239823112824,0.04251673596456123,0.015342937030556064,-0.028361600344907856,26.459874334291886,61.231949280693996,-96.5
1772747066.0508127,86.60820560047424,2.393169882516672,-7.893612850748381,-0.30052085661335903,-1.6432673182403663,9.812715549553783,0.018527637036450776,0.009848554735645982,-0.03381575425739013,26.14737477352072,61.23142533620341,-98.0625
1772747066.0987024,86.6735181840312,2.377200285157899,-7.911181920580221,-0.302771797998232,-1.6423474558806492,9.825187614722644,-0.007608371075714777,-0.016375241118520616,0.03599741582238305,26.14737477352072,61.23142533620341,-98.0625
1772747066.1550026,86.64310569993414,2.3792879778260816,-7.936562449160655,-0.30426977434520214,-1.6417352977557935,9.833487634770425,-0.0032926057721043333,0.011993635008409385,-0.028361600344907856,26.89810724165834,60.795183417901185,-98.5
1772747066.2004359,86.63397423149672,2.379846598478218,-7.897271172172893,-0.30526666087061854,-1.6413279133619563,9.842356317102242,0.007632146922506728,0.0021944608776389924,0.0,26.89810724165834,60.795183417901185,-98.5
1772747066.247019,86.67326629798846,2.3822850137913,-7.906401851106348,-0.3092471422773967,-1.6577879471160422,9.80811698563656,-0.008717489437930248,-0.00546877753682644,0.02181661564992912,26.14737477352072,61.23142533620341,-97.25
1772747066.3046086,86.6488290764686,2.3647787542683636,-7.94128341878406,-0.2884971846164731,-1.6586673352679633,9.785331093024544,0.009804660864645457,0.007652264946715302,-0.017453292519943295,26.14737477352072,61.23142533620341,-97.25
1772747066.3304486,86.63888958917472,2.3694860519283747,-7.926818806314661,-0.27468831958534323,-1.6592525582596573,9.770167336026345,3.6578225833770713e-06,-0.0021816584985971726,0.007635815477475192,26.460607856578708,60.79444989561436,-99.25
1772747066.3566706,86.65384878444617,2.370428356041404,-7.926198509656081,-0.2655042826513741,-1.6562969106176038,9.746695578305031,-0.005448659512617866,-0.003281632304354202,0.013089969389957472,26.460607856578708,60.79444989561436,-99.25
1772747066.3906817,86.65384878444617,2.370428356041404,-7.926198509656081,-0.2655042826513741,-1.6562969106176038,9.746695578305031,-0.005448659512617866,-0.003281632304354202,0.013089969389957472,26.460607856578708,60.79444989561436,-99.25
1772747066.413035,86.6447414444107,2.3544818030063737,-7.940717895808586,-0.2593924086642324,-1.6543299601285646,9.73107538573821,0.0021706850308470414,0.006548633318374896,-0.008726646259971648,26.898735975047046,60.42018394497579,-97.25
1772747066.442329,86.6321894877317,2.313470286975259,-7.959824104074791,-0.2553250247998956,-1.6530209765503854,9.720680322073974,0.006541317673208142,0.002192631966347304,-0.00545415391248228,26.898735975047046,60.42018394497579,-97.25
1772747066.4641035,86.6321894877317,2.313470286975259,-7.959824104074791,-0.2553250247998956,-1.6530209765503854,9.720680322073974,0.006541317673208142,0.002192631966347304,-0.00545415391248228,26.898735975047046,60.42018394497579,-97.25
1772747066.485359,86.63417473416276,2.2781791344164914,-7.9834026636837505,-0.2359824270714415,-1.59860010806531,9.737178305277132,-0.004361488085902657,-0.0010981448944653405,0.01090830782496456,26.89810724165834,60.795183417901185,-99.25
1772747066.5067515,86.63417473416276,2.2781791344164914,-7.9834026636837505,-0.2359824270714415,-1.59860010806531,9.737178305277132,-0.004361488085902657,-0.0010981448944653405,0.01090830782496456,26.89810724165834,60.795183417901185,-99.25
1772747066.5449789,86.63452244405805,2.2565892362927102,-8.04198555220703,-0.22311014435412957,-1.5623836280094263,9.748157528804285,-0.0032688299253123823,-0.0021871452324722382,0.0,26.89810724165834,60.795183417901185,-99.25
1772747066.5881405,86.63295660531249,2.195919324135095,-8.080020017354304,-0.20883174989623737,-1.52893279167302,9.746946060398704,0.0021780006760137955,0.0021853163211805497,0.004363323129985824,26.459874334291886,61.231949280693996,-98.5
1772747066.6302452,86.63413261952343,2.17018036264258,-8.113775273650946,-0.20503045500873138,-1.522711021196587,9.741277413895439,-0.0021816584985971726,-3.6578225833770713e-06,0.00545415391248228,25.773737556270852,60.41829774480967,-98.5
1772747066.664765,86.6297987676573,2.1489447503316925,-8.15305434380419,-0.21584190432314235,-1.5420086854423225,9.72077943443385,0.0021780006760137955,0.0021853163211805497,-0.008726646259971648,25.773737556270852,60.41829774480967,-98.5
1772747066.6940715,86.6297987676573,2.1489447503316925,-8.15305434380419,-0.21584190432314235,-1.5420086854423225,9.72077943443385,0.0021780006760137955,0.0021853163211805497,-0.008726646259971648,25.773737556270852,60.41829774480967,-98.5
1772747066.713965,86.63176371439963,2.119054706967909,-8.161986039291977,-0.22303680307008067,-1.5548510654288255,9.707138258079596,-3.6578225833770713e-06,0.0021816584985971726,0.0,26.89810724165834,60.795183417901185,-97.25
1772747066.7277668,86.63258805353715,2.103798790001964,-8.176318351652155,-0.22117397322639676,-1.5399705598332236,9.708095542719724,3.6578225833770713e-06,-0.0021816584985971726,0.00545415391248228,26.89810724165834,60.795183417901185,-97.25
1772747066.7518022,86.62832749825232,2.088266751339184,-8.191085732717893,-0.21993428077459792,-1.5300677495854897,9.708732604954157,-0.0032688299253123823,-0.0021871452324722382,0.004363323129985824,26.89810724165834,60.795183417901185,-97.25
1772747066.782771,86.62912467293573,2.0673026737723235,-8.229926754603648,-0.22575462539456578,-1.5502496130107537,9.709156562754723,0.0010908292492985863,1.8289112916885357e-06,-0.004363323129985824,26.89936470843575,60.045184472050394,-98.0625
1772747066.8278213,86.63040012684228,2.047273039655482,-8.239169826554416,-0.22962799972164485,-1.5636804176740804,9.70943870193508,3.6578225833770713e-06,-0.0021816584985971726,0.0,26.89936470843575,60.045184472050394,-98.0625
1772747066.8485272,86.63040012684228,2.047273039655482,-8.239169826554416,-0.22962799972164485,-1.5636804176740804,9.70943870193508,3.6578225833770713e-06,-0.0021816584985971726,0.0,26.89936470843575,60.045184472050394,-98.0625
1772747066.8758373,86.63124373231959,2.032017910485868,-8.253501347778666,-0.22888862250782396,-1.5558873246282028,9.709626462407906,0.0,0.0,0.003272492347489368,26.89936470843575,60.045184472050394,-98.0625
1772747066.9052517,86.62292689351652,2.000478480241968,-8.292179533296654,-0.22839657523141085,-1.5507011082607247,9.70975141490515,-3.6578225833770713e-06,0.0021816584985971726,-0.004363323129985824,26.89737371937152,61.23268280298082,-99.25
1772747066.9273536,86.62292689351652,2.000478480241968,-8.292179533296654,-0.22839657523141085,-1.5507011082607247,9.70975141490515,-3.6578225833770713e-06,0.0021816584985971726,-0.004363323129985824,26.89737371937152,61.23268280298082,-99.25
1772747066.9497418,86.62321199507555,1.9953934615582558,-8.296956094565717,-0.22806912326548615,-1.5472497392020008,9.709834569396255,-0.0010944870718819634,0.002179829587305484,-0.002181661564992912,26.89737371937152,61.23268280298082,-99.25
1772747066.996451,86.62507890190138,1.9651953533843753,-8.315750974693678,-0.22451170912350266,-1.5416021761529635,9.716580131195828,-0.001096315983173652,0.003270658836604071,0.003272492347489368,26.459350389801298,61.544448841465154,-97.5625
1772747067.0115697,86.62013166805879,1.9595115130798078,-8.330826948693515,-0.22214428975093245,-1.537843786031242,9.72106922722058,0.0010926581605902748,-0.0010890003380068978,0.001090830782496456,26.459350389801298,61.544448841465154,-97.5625
1772747067.028247,86.62013166805879,1.9595115130798078,-8.330826948693515,-0.22214428975093245,-1.537843786031242,9.72106922722058,0.0010926581605902748,-0.0010890003380068978,0.001090830782496456,26.459350389801298,61.544448841465154,-97.5625
1772747067.0463047,86.6207091701481,1.949341428963793,-8.340379831948104,-0.22056879860429418,-1.535342619389205,9.724056670478564,-0.0010908292492985863,-1.8289112916885357e-06,-0.004363323129985824,26.459350389801298,61.544448841465154,-97.5625
1772747067.072255,86.6207091701481,1.949341428963793,-8.340379831948104,-0.22056879860429418,-1.535342619389205,9.724056670478564,-0.0010908292492985863,-1.8289112916885357e-06,-0.004363323129985824,26.459350389801298,61.544448841465154,-97.5625
1772747067.1002119,86.62201347361676,1.9293129416905772,-8.349621331888567,-0.21283572132340006,-1.5303217969448981,9.736080115716783,0.0010890003380068978,0.0010926581605902748,-0.002181661564992912,26.461236589967413,60.41945042268897,-97.6875
1772747067.1251442,86.62288660566038,1.914058587521885,-8.363950671672688,-0.20768944477709841,-1.5269804956944735,9.744081584212134,-0.0010871714267152092,-0.002183487409888861,0.0,26.461236589967413,60.41945042268897,-97.6875
1772747067.1559544,86.62288660566038,1.914058587521885,-8.363950671672688,-0.20768944477709841,-1.5269804956944735,9.744081584212134,-0.0010871714267152092,-0.002183487409888861,0.0,26.461236589967413,60.41945042268897,-97.6875
1772747067.1852942,86.62391559957541,1.8934093678064583,-8.392919940458683,-0.20425343824497397,-1.5314471110484102,9.739371136991572,-1.8289112916885357e-06,0.0010908292492985863,-0.002181661564992912,25.773108822882147,60.793297217735066,-97.5625
1772747067.1996038,86.62391559957541,1.8934093678064583,-8.392919940458683,-0.20425343824497397,-1.5314471110484102,9.739371136991572,-1.8289112916885357e-06,0.0010908292492985863,-0.002181661564992912,25.773108822882147,60.793297217735066,-97.5625
1772747067.2193732,86.6195568763624,1.8832570906958743,-8.393043504066783,-0.20531192128620998,-1.5344252021602107,9.736236386985432,-0.0010926581605902748,0.0010890003380068978,0.002181661564992912,25.773108822882147,60.793297217735066,-97.5625
1772747067.2413015,86.6201462626794,1.8730874920621425,-8.40259616816067,-0.20603315539347694,-1.5263717675106856,9.740840469288436,-0.0021816584985971726,-3.6578225833770713e-06,-0.001090830782496456,25.773108822882147,60.793297217735066,-97.5625
1772747067.254499,86.6201462626794,1.8730874920621425,-8.40259616816067,-0.20603315539347694,-1.5263717675106856,9.740840469288436,-0.0021816584985971726,-3.6578225833770713e-06,-0.001090830782496456,25.773108822882147,60.793297217735066,-97.5625
1772747067.284967,86.62059899782763,1.8626072005588679,-8.422012373965108,-0.20651312863515023,-1.5210122967141864,9.743904434630116,0.0,0.0,-0.001090830782496456,27.148735623663978,60.42060310056826,-98.75
1772747067.3059614,86.62059899782763,1.8626072005588679,-8.422012373965108,-0.20651312863515023,-1.5210122967141864,9.743904434630116,0.0,0.0,-0.001090830782496456,27.148735623663978,60.42060310056826,-98.75
1772747067.3326008,86.62162711098354,1.8476643434083453,-8.426477653966481,-0.20684376244406785,-1.5107554147570137,9.74259835763095,1.8289112916885357e-06,-0.0010908292492985863,-0.002181661564992912,27.148735623663978,60.42060310056826,-98.75
1772747067.3609118,86.62222240311651,1.83749542464597,-8.436030179346936,-0.2070525785722444,-1.5106197884027082,9.74172917797784,1.8289112916885357e-06,-0.0010908292492985863,0.001090830782496456,26.148108295807543,60.793925951123775,-98.0625
1772747067.4013088,86.62311850481225,1.8222424133548096,-8.450358894538832,-0.21053665037857383,-1.5105351390680817,9.741150748628069,-0.0010890003380068978,-0.0010926581605902748,-0.001090830782496456,26.148108295807543,60.793925951123775,-98.0625
1772747067.62576,86.62135033934406,1.766014641777387,-8.503330590388261,-0.20198173279380421,-1.5231082140355359,9.743570817936641,0.0010908292492985863,1.8289112916885357e-06,-0.001090830782496456,26.89810724165834,60.795183417901185,-97.5625
1772747067.701845,86.62226434516576,1.7507624428704245,-8.517658828423436,-0.20382256064154208,-1.5154953313270982,9.745721451155504,0.0,0.0,0.0,26.89684977488093,61.545182363751984,-98.875
1772747067.7631347,86.61778934231803,1.7402885255764577,-8.527644618654735,-0.20170250400516032,-1.510423434436987,9.74715267353851,-0.0010926581605902748,0.0010890003380068978,0.0,26.89684977488093,61.545182363751984,-98.875
1772747067.8096926,86.61778934231803,1.7402885255764577,-8.527644618654735,-0.20170250400516032,-1.510423434436987,9.74715267353851,-0.0010926581605902748,0.0010890003380068978,0.0,26.89684977488093,61.545182363751984,-98.875
1772747067.83049,86.61809576166198,1.735204237630231,-8.532420634322055,-0.19694091450145745,-1.510387642229957,9.738069800924642,0.0010871714267152092,0.002183487409888861,-0.001090830782496456,27.58434880857749,61.546335041631274,-98.5
1772747067.8522074,86.61809576166198,1.735204237630231,-8.532420634322055,-0.19376652138806488,-1.5137089299216606,9.732025250662447,-0.0010926581605902748,0.0010890003380068978,0.0,27.58434880857749,61.546335041631274,-98.5
1772747067.8674755,86.61809576166198,1.735204237630231,-8.532420634322055,-0.19376652138806488,-1.5137089299216606,9.732025250662447,-0.0010926581605902748,0.0010890003380068978,0.0,27.58434880857749,61.546335041631274,-98.5
1772747067.9019678,86.61809576166198,1.735204237630231,-8.532420634322055,-0.19834421224271054,-1.5159304267575113,9.728002669985008,-0.0010871714267152092,-0.002183487409888861,0.0,27.58434880857749,61.546335041631274,-98.5
1772747067.936378,86.61809576166198,1.735204237630231,-8.532420634322055,-0.20139061437031974,-1.5174088080860244,9.728670799186661,-1.8289112916885357e-06,0.0010908292492985863,-0.001090830782496456,27.586235008743607,60.42133662285508,-98.0625
1772747067.9875607,86.61809576166198,1.735204237630231,-8.532420634322055,-0.2034179609557022,-1.5183926543455482,9.72911543170687,-3.6578225833770713e-06,0.0021816584985971726,0.001090830782496456,27.586235008743607,60.42133662285508,-98.0625
1772747068.1038568,86.61809576166198,1.735204237630231,-8.532420634322055,-0.20142203045567197,-1.5190417845518602,9.729411329682197,-0.0010908292492985863,-1.8289112916885357e-06,-0.001090830782496456,27.586235008743607,60.42133662285508,-97.6875
1772747068.164319,86.61809576166198,1.735204237630231,-8.532420634322055,-0.20343325952044514,-1.5228244889476767,9.72960824647938,-3.6578225833770713e-06,0.0021816584985971726,0.0,27.586235008743607,60.42133662285508,-97.6875
1772747068.2514768,86.61809576166198,1.735204237630231,-8.532420634322055,-0.20343325952044514,-1.5228244889476767,9.72960824647938,-3.6578225833770713e-06,0.0021816584985971726,0.0,27.586235008743607,60.42133662285508,-97.6875
1772747068.3234675,86.61809576166198,1.735204237630231,-8.532420634322055,-0.20477170999615096,-1.5253418364675155,9.729739292408201,-0.0010835136041318322,-0.004365145908486034,0.0,27.586863742132312,60.046337149929684,-97.25
1772747068.419598,86.61809576166198,1.735204237630231,-8.532420634322055,-0.20625520060181812,-1.5281319743655288,9.724313292844528,0.001096315983173652,-0.003270658836604071,0.0,26.461236589967413,60.41945042268897,-97.25
1772747068.5067854,86.24152571468679,1.698106049294894,-8.661731791538557,-0.2066384632844208,-1.5355641227359131,9.722870448205395,0.0021615404743885987,0.012002779564867828,-0.2378011105842274,26.461236589967413,60.41945042268897,-97.25
1772747068.5628266,86.19821041529427,1.6682395084990347,-8.7160157642884,-0.20314460209619775,-1.781352230372047,9.68176891072785,0.05453414681976257,0.004454762561778772,0.015271630954950384,23.905446681123387,56.415159699995236,-100.0625
1772747068.617141,86.50401552396988,1.7136972614200887,-8.6325401900104,-0.15335927237728997,-2.0603882265851707,9.652938996101152,-0.09379485523805324,-0.009974749614772491,0.08508480103472356,25.774366289659557,60.043298271884275,-96.75
1772747068.6536255,86.79639404680631,1.7097368379652529,-8.672087724534467,-0.2115107961356963,-1.9299832988334709,9.651955869074579,0.012044844524576664,-0.027250613208256086,0.16035212502697901,25.774366289659557,60.043298271884275,-96.75
1772747068.7038915,86.79639404680631,1.7097368379652529,-8.672087724534467,-0.2115107961356963,-1.9299832988334709,9.651955869074579,0.012044844524576664,-0.027250613208256086,0.16035212502697901,25.774366289659557,60.043298271884275,-96.75
1772747068.7778192,87.92535230518789,1.6760594862803901,-8.662600760380704,-0.13678385793170347,-1.7250016959548506,9.597344418946204,3.474931454208218e-05,-0.020725755736673145,0.2596177262341565,25.77122262271603,61.91829563651126,-96.75
1772747068.810997,87.92535230518789,1.6760594862803901,-8.662600760380704,-0.13678385793170347,-1.7250016959548506,9.597344418946204,3.474931454208218e-05,-0.020725755736673145,0.2596177262341565,25.77122262271603,61.91829563651126,-96.75
1772747068.8841045,89.14144468932507,1.738308570313792,-8.633974544632835,-0.10037756166090835,-1.6142150596368345,9.609966400889075,0.007657751680590368,-0.013077148612541218,0.19634954084936207,25.397375827669926,61.230167869426,-96.5
1772747068.9580522,89.73506216667745,1.7633234522557053,-8.61518289031118,-0.14286829131128206,-1.5928626713511336,9.676879874313395,2.3775846791950967e-05,-0.014180780240881624,0.21707532571679475,24.961238698265824,60.41693548913414,-96.75
1772747068.9888113,90.31912953078046,1.7775631926204236,-8.625895790848698,-0.14885574427453863,-1.5134149859630777,9.751044373500555,-0.015236860175638129,-0.02075136049475678,0.20616701789183017,24.961238698265824,60.41693548913414,-96.75
1772747069.0061867,90.68640650771489,1.7706347378715335,-8.644894138598609,-0.14502962574207617,-1.5223857649241297,9.747349907190884,-0.010858911888110273,-0.029470678843978717,0.22143864884678055,26.145593362252722,62.293923842825365,-96.5
1772747069.023133,90.68640650771489,1.7706347378715335,-8.644894138598609,-0.14502962574207617,-1.5223857649241297,9.747349907190884,-0.010858911888110273,-0.029470678843978717,0.22143864884678055,26.145593362252722,62.293923842825365,-96.5
1772747069.0415556,90.90916872198869,1.7775987090474872,-8.641775445808795,-0.1625540286332084,-1.5283893690472523,9.744891281131691,-0.002145080272763402,-0.021820242808555105,0.2007128639793479,26.145593362252722,62.293923842825365,-96.5
1772747069.0565171,91.13207670053947,1.7797363513890228,-8.6534681273927,-0.19428696503079135,-1.5324183514612475,9.716494199295395,-0.01086256971069365,-0.027289020345381547,0.19853120241435498,26.145593362252722,62.293923842825365,-96.5
1772747069.0796351,91.34046691804758,1.78052967440346,-8.645290043298145,-0.21544413914708435,-1.5116838452114802,9.69759625854953,-0.0010359619105479302,-0.03272670639024928,0.17889624832941878,24.646852937328543,61.541409963419746,-95.5625
1772747069.129358,91.7731219828808,1.7684964254466604,-8.634183034626757,-0.20945336014641522,-1.4978516119871619,9.705090560330902,-0.00977722719527013,-0.024014703686194096,0.21489366415180183,24.646852937328543,61.541409963419746,-95.5625
1772747069.1540937,92.30014735009584,1.7538150718811203,-8.632008972968674,-0.20212145663719935,-1.4886408068034291,9.736838828108125,0.0022420125712228943,-0.03599370740426998,0.23343778745424157,25.396223149790632,61.91766690312256,-96.75
1772747069.2010722,92.78565514314515,1.7655115693605188,-8.620113836569653,-0.1972141143089536,-1.4992366538733755,9.757966945662478,0.0011347231202991112,-0.026178073071874388,0.21489366415180183,25.396223149790632,61.91766690312256,-96.75
1772747069.2951994,93.84811926031897,1.7569040268212055,-8.625992998308917,-0.2017822900895155,-1.5277112520717464,9.72567213319672,-0.001052422112173127,-0.022909243146562005,0.22143864884678055,24.646224203939838,61.91640943634515,-96.5
1772747069.3461123,94.52748414933527,1.7640707895839245,-8.631966031957967,-0.20700689830982463,-1.5352897452382952,9.750535634939093,-0.016322202691061646,-0.024025677153944228,0.19853120241435498,23.896225258089043,61.91515196956774,-96.5
1772747069.366305,94.85963329972971,1.7697360918233853,-8.637607238464643,-0.21046699125038776,-1.5503684688002886,9.767082017605128,-0.0163295183362284,-0.019662360156749884,0.19634954084936207,23.896225258089043,61.91515196956774,-96.5
1772747069.4396741,95.51601264784625,1.755571154509466,-8.645188376865159,-0.19935556549322464,-1.5804513989678848,9.734606998239018,-0.004315765303610443,-0.028368876126930002,0.19416787928436915,24.271224731014442,61.91578070295644,-96.0625
1772747069.4764643,95.93815178897916,1.754109824387208,-8.665355261285436,-0.19196103577459117,-1.6004712529460712,9.64609300147422,-0.01631854486847827,-0.026207335652541405,0.19416787928436915,24.271224731014442,61.91578070295644,-96.0625
1772747069.5369816,96.52979660182778,1.7458634578629852,-8.68408033880988,-0.18702323338179516,-1.6238295631491029,9.654090159539766,4.5722782292213396e-05,-0.02727073123246466,0.22580197197676638,23.144864056562717,62.72639336079535,-96.75
1772747069.581019,97.11505666876937,1.7598791514254826,-8.666667112316679,-0.19711760907088396,-1.6393966916162714,9.686173072556832,-0.0032359095220619886,-0.02182207171984679,0.2203478180642841,23.144864056562717,62.72639336079535,-96.75
1772747069.650754,97.78044854173334,1.772097870807208,-8.679148296917928,-0.18041955429080928,-1.6497171822911256,9.740975009853262,-0.01742766323069374,-0.015300872070847227,0.20398535632683726,23.146855045626953,61.538895029864925,-95.5625
1772747069.70251,98.43197091617581,1.7681460001638742,-8.687568333887526,-0.16933522780975457,-1.6398598185195215,9.777445086946285,-0.003237738433353677,-0.02073124247054821,0.19962203319685143,23.146855045626953,61.538895029864925,-95.5625
1772747069.7459335,98.9637182483746,1.7758774897946403,-8.706881076821924,-0.16205407667166263,-1.5764330339473196,9.801715515854237,0.005496211206201768,-0.025079928177409044,0.19198621771937624,21.396857505308432,61.535960940717636,-96.5
1772747069.7938755,99.42800641610161,1.752652085639605,-8.71410994359102,-0.17049363563266762,-1.591112470390768,9.908185231271649,-0.009779056106561818,-0.022923874436895513,0.21162117180431245,21.396857505308432,61.535960940717636,-96.5
1772747069.8591416,100.26839466939015,1.7717513424541638,-8.700262143927736,-0.21293989584210116,-1.5808725227101925,9.979039637537284,-0.002128620071138205,-0.031637706052242386,0.2007128639793479,21.64622842053666,61.9113795692355,-96.5
1772747069.9225526,100.26839466939015,1.7717513424541638,-8.700262143927736,-0.21293989584210116,-1.5808725227101925,9.979039637537284,-0.002128620071138205,-0.031637706052242386,0.2007128639793479,21.64622842053666,61.9113795692355,-96.5
1772747069.9563053,101.17675536433957,1.7464244098399417,-8.68973768482543,-0.2043856223043402,-1.5773413655418367,9.972670666094375,-0.0010451064670063729,-0.02727256014375635,0.21707532571679475,21.396857505308432,61.535960940717636,-96.875
1772747069.9799972,101.17675536433957,1.7464244098399417,-8.68973768482543,-0.2043856223043402,-1.5773413655418367,9.972670666094375,-0.0010451064670063729,-0.02727256014375635,0.21707532571679475,21.396857505308432,61.535960940717636,-96.875
1772747070.042472,101.99922251249278,1.7439281917011522,-8.723528264872519,-0.19535335030591824,-1.5716407043971306,9.92829084625736,-0.01849654554449207,-0.02839265197372195,0.20943951023931956,21.396857505308432,61.535960940717636,-96.875
1772747070.0646527,102.69725547906312,1.7544555273480222,-8.732684244937198,-0.1893761251227672,-1.5477763360519445,9.898756571910896,0.007657751680590368,-0.013077148612541218,0.21271200258680892,19.895602146829432,62.28344495301361,-96.5
1772747070.1018076,103.37277635366834,1.8028177084029733,-8.737671707692442,-0.18539834853336043,-1.5318948655006852,9.879101842252787,0.00546877753682644,-0.008717489437930248,0.21925698728178766,19.895602146829432,62.28344495301361,-96.5
1772747070.140877,103.37277635366834,1.8028177084029733,-8.737671707692442,-0.18539834853336043,-1.5318948655006852,9.879101842252787,0.00546877753682644,-0.008717489437930248,0.21925698728178766,19.895602146829432,62.28344495301361,-96.5
1772747070.1703877,103.72204189759451,1.8054260117014298,-8.739862906808678,-0.19605870031187675,-1.5648347492864854,9.829225610442519,0.006594356100667109,-0.0294414162633117,0.20616701789183017,19.456216561583684,63.40770984950298,-96.0625
1772747070.1928763,104.15180421461264,1.8000414590022347,-8.747482725935654,-0.20315304533654724,-1.5867558739833232,9.796033535326801,-0.014129570724714345,-0.03056699482715237,0.18762289458939044,19.456216561583684,63.40770984950298,-96.0625
1772747070.211948,104.15180421461264,1.8000414590022347,-8.747482725935654,-0.20315304533654724,-1.5867558739833232,9.796033535326801,-0.014129570724714345,-0.03056699482715237,0.18762289458939044,19.456216561583684,63.40770984950298,-96.0625
1772747070.2388005,104.5664903603084,1.8047585953146765,-8.764437563981248,-0.20791912061438486,-1.574583281548806,9.753873909873148,-0.007608371075714777,-0.016375241118520616,0.18653206380689397,19.157758713160273,55.03219767634518,-96.75
1772747070.2553828,104.5664903603084,1.8047585953146765,-8.764437563981248,-0.20791912061438486,-1.574583281548806,9.753873909873148,-0.007608371075714777,-0.016375241118520616,0.18653206380689397,19.157758713160273,55.03219767634518,-96.75
1772747070.277816,104.76693265696254,1.8060544725666106,-8.768379686791349,-0.2111694093188919,-1.5196510591812047,9.779338937404725,-0.014140544192464476,-0.02402201933136085,0.17998707911191522,19.157758713160273,55.03219767634518,-96.75
1772747070.334188,105.54530591656336,1.7671596783226682,-8.804231133400917,-0.2032971191266667,-1.4830774533613422,9.836426969251828,-0.02723598191792258,-0.020771478518965356,0.18216874067690814,18.39434678835043,63.03092896530958,-94.75
1772747070.3492758,105.54530591656336,1.7671596783226682,-8.804231133400917,-0.2032971191266667,-1.4830774533613422,9.836426969251828,-0.02723598191792258,-0.020771478518965356,0.18216874067690814,18.39434678835043,63.03092896530958,-94.75
1772747070.390806,105.87095137022472,1.7669722736282314,-8.797705748429513,-0.20460259123722382,-1.545722126367487,9.874418416730974,-0.0032176204091451032,-0.03273036421283265,0.1832595714594046,18.39434678835043,63.03092896530958,-94.75
1772747070.4168434,106.23169373309351,1.7624080936853246,-8.811558625882848,-0.19878115433240676,-1.58740023948799,9.872940406977515,-0.00104876428958975,-0.025090901645159175,0.16471544815696484,18.769870205766413,62.71905813792712,-96.0625
1772747070.435523,106.52897890614844,1.7432861204369765,-8.828152657258032,-0.19155072911806878,-1.6218211637168511,9.855231249460441,-0.002141422450180025,-0.02400190130715228,0.19962203319685143,18.769870205766413,62.71905813792712,-96.0625
1772747070.4567134,107.0009480756192,1.738999133842683,-8.817026820168214,-0.18686234866767001,-1.5711355501597883,9.806649774176567,0.006592527189375421,-0.028350587014013117,0.20180369476184434,17.95621866988209,63.40519491594816,-96.0625
1772747070.4837036,107.3251113680291,1.7582685379589977,-8.807651590737361,-0.17032820489323378,-1.5574530486104339,9.774319345065786,-0.0021542248292218446,-0.01636609656206217,0.1930770485018727,17.95621866988209,63.40519491594816,-96.0625
1772747070.5218155,107.59239938654234,1.7468563561801354,-8.823740013654438,-0.15932491690983439,-1.5483474966728956,9.752803805647119,-0.02177634893755458,-0.024034821710402672,0.15707963267948966,17.95621866988209,63.40519491594816,-96.0625
1772747070.5414565,107.59239938654234,1.7468563561801354,-8.823740013654438,-0.15932491690983439,-1.5483474966728956,9.752803805647119,-0.02177634893755458,-0.024034821710402672,0.15707963267948966,17.95621866988209,63.40519491594816,-96.0625
1772747070.571821,108.2446035163598,1.7522344395327942,-8.815640696548302,-0.1470134037701799,-1.6073598602878807,9.641995667374621,0.017462412545235822,-0.005424883665825915,0.14944381720201447,16.14120628385452,64.90215392960434,-95.6875
1772747070.651497,108.76901853546855,1.737196849843011,-8.837025189857552,-0.10028352670846791,-1.6049027610296824,9.654708541174022,-0.010853425154235208,-0.03274316659187448,0.13853550937704992,15.453707250157954,64.90100125172505,-96.0625
1772747070.686851,109.05461249262021,1.7453565914118907,-8.839801564833929,-0.1093939014681307,-1.5631936067224845,9.566160577163156,0.007659580591882056,-0.014167977861839804,0.18216874067690814,15.453707250157954,64.90100125172505,-96.0625
1772747070.7287493,109.05461249262021,1.7453565914118907,-8.839801564833929,-0.1093939014681307,-1.5631936067224845,9.566160577163156,0.007659580591882056,-0.014167977861839804,0.18216874067690814,15.453707250157954,64.90100125172505,-96.0625
1772747070.7841341,109.62367516416006,1.736362778115159,-8.845025652242995,-0.11545675410113197,-1.5354366304528264,9.654417811381547,0.002231039103472763,-0.029448731908478454,0.21162117180431245,14.640055714273634,65.58713802974607,-94.875
1772747070.8184533,110.2436988728831,1.7430325494596735,-8.858391030672733,-0.13946120403170595,-1.5772102498476446,9.656285115831553,-0.013051543854457578,-0.022929361170770577,0.17016960206944712,14.640055714273634,65.58713802974607,-94.875
1772747070.8466945,110.44525652035509,1.727005504616391,-8.87554067251714,-0.1554190718458727,-1.6150454479299623,9.67090823291315,-0.010855254065526896,-0.031652337342575894,0.18216874067690814,14.390056065656703,65.5867188741536,-94.5
1772747070.875788,110.8694058525991,1.7266974377277535,-8.880448777838142,-0.13594971703157943,-1.6301385521878542,9.667259307150756,0.005499869028785145,-0.027261586676006217,0.19198621771937624,14.390056065656703,65.5867188741536,-94.5
1772747070.912208,110.8694058525991,1.7266974377277535,-8.880448777838142,-0.13594971703157943,-1.6301385521878542,9.667259307150756,0.005499869028785145,-0.027261586676006217,0.19198621771937624,14.390056065656703,65.5867188741536,-94.5
1772747070.947694,111.56445106541791,1.7474445692377425,-8.881188735314511,-0.12297625342225622,-1.6502181654874302,9.678211434646332,0.003298092505979399,-0.015266122756305145,0.17016960206944712,13.95182315829025,66.02348473694641,-95.6875
1772747070.9995792,112.27045376087814,1.772986451580004,-8.901469343124322,-0.1352867920873517,-1.7148623336153828,9.582282388874813,-0.0043505146181525255,-0.00764312039025686,0.17889624832941878,12.083741860939021,61.89534686782351,-94.5
1772747071.0230913,112.45069993745021,1.7850020869169525,-8.88858594946542,-0.14925668089865715,-1.7300615125533436,9.564793345763636,0.010944870718819635,-0.021798295873054842,0.15271630954950383,12.083741860939021,61.89534686782351,-94.5
1772747071.0516582,112.82676122682307,1.7792865745843007,-8.885118145725844,-0.1618929843652365,-1.7435271118453783,9.606676370255672,0.0054797510045765715,-0.015262464933721768,0.17562375598192942,12.083741860939021,61.89534686782351,-94.5
1772747071.0951023,112.82676122682307,1.7792865745843007,-8.885118145725844,-0.1618929843652365,-1.7435271118453783,9.606676370255672,0.0054797510045765715,-0.015262464933721768,0.17562375598192942,12.083741860939021,61.89534686782351,-94.5
1772747071.1136398,-129.7398616101689,-6.603815935262009,2.4318850375087977,-0.17029108618724983,-1.759178531764941,9.637894166898402,0.010944870718819635,-0.021798295873054842,0.14726215563702155,11.390689015642227,65.20668953411857,-92.875
1772747071.1499894,-129.7398616101689,-6.603815935262009,2.4318850375087977,-0.17029108618724983,-1.759178531764941,9.637894166898402,0.010944870718819635,-0.021798295873054842,0.14726215563702155,11.390689015642227,65.20668953411857,-92.875
1772747071.2290921,113.50300283386915,1.7946497742756253,-8.866473923423532,-0.23274674823302313,-1.769689721198604,9.668704596960458,0.008717489437930248,0.00546877753682644,0.04145156973486533,11.390689015642227,65.20668953411857,-92.875
1772747071.2802906,113.50300283386915,1.7946497742756253,-8.866473923423532,-0.23274674823302313,-1.769689721198604,9.668704596960458,0.008717489437930248,0.00546877753682644,0.04145156973486533,11.390689015642227,65.20668953411857,-92.875
1772747071.3589952,113.81607120979412,1.8266545039246447,-8.850257243203718,-0.27454024170287444,-1.6395354131170932,9.722659711064894,0.020711124446339636,0.008761383308930773,0.02399827721492203,10.638175136236612,66.70542995904275,-91.25
1772747071.4110382,113.87603108281938,1.8312514071968191,-8.849104731132732,-0.25217673965829435,-1.5528350476709603,9.758566236783281,-0.018549583971951035,0.0032413962559370542,0.016362461737446838,10.638175136236612,66.70542995904275,-91.25
1772747071.4443703,113.90874987710087,1.8049829291279058,-8.880105413348339,-0.23054777996181663,-1.5285767760514328,9.779116516839375,0.004368803731069411,-0.003265172102729005,0.028361600344907856,10.262022985431921,67.3923002593506,-90.5
1772747071.5411692,114.07063144784235,1.7963178170382255,-8.89684982650802,-0.19981255319117178,-1.5518197239591058,9.72389626524591,0.009815634332395589,0.0011072894509237831,0.02181661564992912,8.762653827119037,67.01478585287038,-90.5
1772747071.5879633,114.11784221585846,1.7903687030440045,-8.89856928703503,-0.19230441540651563,-1.5580014440248968,9.70921247416774,-0.0010871714267152092,-0.002183487409888861,0.02399827721492203,8.762653827119037,67.01478585287038,-90.5
1772747071.6563735,114.11784221585846,1.7903687030440045,-8.89856928703503,-0.19230441540651563,-1.5580014440248968,9.70921247416774,-0.0010871714267152092,-0.002183487409888861,0.02399827721492203,8.762653827119037,67.01478585287038,-90.5
1772747071.7169034,114.23537677376623,1.7801144803576046,-8.900888146267146,-0.21404064718188567,-1.5788857126155735,9.739581915721747,-0.0010816846928401436,-0.0054559751577846205,0.015271630954950384,9.888176190385817,66.70417249226533,-88.0625
1772747071.7871072,114.24502610744317,1.7808328886134306,-8.900577667901317,-0.2285058666187759,-1.592783960070103,9.759792439827047,-0.005459632980367998,0.0032633431914373167,0.001090830782496456,9.888176190385817,66.70417249226533,-88.0625
1772747071.8383815,114.24502610744317,1.7808328886134306,-8.900577667901317,-0.2285058666187759,-1.592783960070103,9.759792439827047,-0.005459632980367998,0.0032633431914373167,0.001090830782496456,9.888176190385817,66.70417249226533,-88.0625
1772747071.8965008,114.34008959207826,1.7430502563159629,-8.995327558537783,-0.2379752708716268,-1.695696084655889,9.75651675931618,-0.018527637036450776,-0.009848554735645982,0.011999138607461015,6.575156901720884,67.01111824143626,-87.5625
1772747071.9636018,114.41501606390746,1.752794593530707,-8.871420239686676,-0.22446440208722018,-1.610274380769045,9.710850378332795,0.04256428765814513,-0.013018623451207184,0.04145156973486533,6.575156901720884,67.01111824143626,-87.5625
1772747071.9933708,114.41501606390746,1.752794593530707,-8.871420239686676,-0.22446440208722018,-1.610274380769045,9.710850378332795,0.04256428765814513,-0.013018623451207184,0.04145156973486533,6.575156901720884,67.01111824143626,-87.5625
1772747072.0439258,114.41501606390746,1.752794593530707,-8.871420239686676,-0.22446440208722018,-1.610274380769045,9.710850378332795,0.04256428765814513,-0.013018623451207184,0.04145156973486533,6.575156901720884,67.01111824143626,-87.5625
1772747072.0700228,114.73384093093313,1.7692525514417865,-8.944536557768686,-0.168413806965771,-1.4195077357454067,9.658009261524256,0.0032926057721043333,-0.011993635008409385,0.09490227807719166,7.387027026337207,67.38747997003719,-85.25
1772747072.1359117,114.73384093093313,1.7692525514417865,-8.944536557768686,-0.168413806965771,-1.4195077357454067,9.658009261524256,0.0032926057721043333,-0.011993635008409385,0.09490227807719166,7.387027026337207,67.38747997003719,-85.25
1772747072.1738071,115.40882356798015,1.7766806769586894,-9.071028541397624,-0.11117454048219112,-1.483228769108932,9.625224068709205,-0.03049749619806821,-0.02732194074863194,0.16907877128695067,5.88640040124691,67.75996450940777,-84.875
1772747072.2565138,115.98930018476521,1.782569547725982,-9.020522383758841,-0.07327313667189123,-1.4119007668094403,9.740555469125484,0.004421842158528378,-0.03489922033238801,0.2007128639793479,5.88640040124691,67.75996450940777,-84.875
1772747072.3191857,116.7793333635965,1.7841722387974996,-9.053040300895217,-0.047859487192538436,-1.4781664162574573,9.716953876546777,0.001151183321924308,-0.03599553631556166,0.22362031041177347,6.137028783252548,67.38538419207484,-82.875
1772747072.3688893,117.72586063410698,1.8181894732095907,-8.996826241502859,-0.17142465612333105,-1.5325363432892427,9.845087083747444,-0.006513884003832814,-0.018555070705826102,0.2007128639793479,6.137028783252548,67.38538419207484,-82.875
1772747072.4026434,117.72586063410698,1.8181894732095907,-8.996826241502859,-0.17142465612333105,-1.5325363432892427,9.845087083747444,-0.006513884003832814,-0.018555070705826102,0.2007128639793479,6.137028783252548,67.38538419207484,-82.875
1772747072.4386039,118.29881742269724,1.819912422347498,-8.978164803989587,-0.11985161550711759,-1.568494582812286,9.786518498383046,2.926258066701657e-05,-0.01745326798877738,0.21598449493429828,5.075159010019294,67.00860330788144,-80.875
1772747072.4864264,119.01943584204408,1.8269330584389802,-8.953417141670457,-0.08557520099858547,-1.565663533489761,9.740851535662367,0.0022383547486395173,-0.0338120489056728,0.21162117180431245,5.075159010019294,67.00860330788144,-80.875
1772747072.5226667,119.01943584204408,1.8269330584389802,-8.953417141670457,-0.08557520099858547,-1.565663533489761,9.740851535662367,0.0022383547486395173,-0.0338120489056728,0.21162117180431245,5.075159010019294,67.00860330788144,-80.875
1772747072.5577445,119.74817704228069,1.8370287790943007,-8.939006833488177,-0.06280388945962333,-1.5403637527509153,9.710460682105154,0.002227381280889386,-0.027267073409881284,0.20616701789183017,6.135666527577019,68.19788305007987,-80.0625
1772747072.6118567,120.65642263755115,1.8452344993098282,-8.920508994613357,-0.107822502680658,-1.5470437331300093,9.690235908550907,-0.002135935716304959,-0.02727438905504804,0.23889194136672387,6.135666527577019,68.19788305007987,-80.0625
1772747072.6719708,121.51186370443354,1.8362243410422787,-8.912263887156037,-0.15119035735661493,-1.5347860843802144,9.67677654767608,-0.005413910198075784,-0.024007388041027342,0.2181661564992912,4.761401982470718,67.75807830924165,-79.25
1772747072.750968,-133.7656337794698,-6.541700271772556,3.1923773460947746,-0.19008650120975573,-1.5266455815314888,9.631023264584282,0.11783333477103927,-0.013983257821379262,0.19744037163185854,4.761401982470718,67.75807830924165,-79.25
1772747072.8040173,122.1180542310087,1.8630776300607783,-8.634932804885691,-0.22297013135844168,-1.3372584994881431,9.503566726272089,0.037075392097110124,0.007697987729007516,-0.11562806294462433,7.381997159227563,70.38747575344037,-76.0625
1772747072.8644147,121.95839787689421,1.8496485697279597,-8.668638985155509,-0.23816360587686083,-1.211212295002386,9.418745823808148,-0.05666459580219246,-0.035001639364722566,0.037088246604879506,4.385145042767911,68.50744852170374,-77.25
1772747072.9148028,121.90847631658218,1.8942170303632222,-8.640189653451937,-0.27808901506340133,-1.301325994641701,9.51617359926665,0.04362768323806839,0.003345644199563301,-0.020725784867432664,4.385145042767911,68.50744852170374,-77.25
1772747072.9514024,121.90847631658218,1.8942170303632222,-8.640189653451937,-0.27808901506340133,-1.301325994641701,9.51617359926665,0.04362768323806839,0.003345644199563301,-0.020725784867432664,4.385145042767911,68.50744852170374,-77.25
1772747073.0260937,121.40594954912426,1.9248680181654734,-8.526240124110025,-0.40026696376033527,-1.5284498705467122,9.664300399244514,0.027232324095339204,0.02295313701756253,-0.1636246173744684,5.44890101616728,67.75923098712094,-80.0625
1772747073.049113,121.03607246236778,1.9129655628788005,-8.533234653433436,-0.44602187732821014,-1.6062080063530553,9.713038543268407,0.01086256971069365,0.027289020345381547,-0.22362031041177347,6.134513849697726,68.88538208377643,-80.0625
1772747073.1251442,120.51887132125746,1.8892119894744008,-8.558485070504277,-0.47647126119175653,-1.6579551771168852,9.745473233675567,-0.0032962635946877103,0.014175293507006559,-0.1559888018969932,6.134513849697726,68.88538208377643,-80.0625
1772747073.1579504,120.18621391257793,1.8539173707766892,-8.525317661120168,-0.4132531315866931,-1.6052793468314048,9.676740141724675,0.011980832629367565,0.010928410517194438,-0.13853550937704992,6.947012707702754,68.88674433945197,-81.25
1772747073.2156494,120.18621391257793,1.8539173707766892,-8.525317661120168,-0.4132531315866931,-1.6052793468314048,9.676740141724675,0.011980832629367565,0.010928410517194438,-0.13853550937704992,6.947012707702754,68.88674433945197,-81.25
1772747073.2882593,119.06055995087786,1.7279432144090925,-8.558723718491505,-0.24290212892538182,-1.5467272059828798,9.623974624435956,0.013051543854457578,0.022929361170770577,-0.15162547876700738,8.072639859867651,68.51363106669268,-83.25
1772747073.3567479,119.06055995087786,1.7279432144090925,-8.558723718491505,-0.24290212892538182,-1.5467272059828798,9.623974624435956,0.013051543854457578,0.022929361170770577,-0.15162547876700738,8.072639859867651,68.51363106669268,-83.25
1772747073.395841,118.71691856362149,1.692124066520348,-8.88408016232381,-0.16748637707061304,-1.5377971593446953,9.619299956455345,-0.056699345116734544,-0.014275883628049428,-0.006544984694978736,8.072639859867651,68.51363106669268,-83.25
1772747073.4626403,118.83900456706775,1.7120749057144544,-8.823553150731929,-0.11383608404127403,-1.6282321819604102,9.458123828693195,-0.01639170132014581,0.017425834319402055,-0.07526732399225546,8.074526060033769,67.38863264791648,-84.5
1772747073.4959602,118.83900456706775,1.7120749057144544,-8.823553150731929,-0.11383608404127403,-1.6282321819604102,9.458123828693195,-0.01639170132014581,0.017425834319402055,-0.07526732399225546,8.074526060033769,67.38863264791648,-84.5
1772747073.5497203,118.98259422586129,1.703481236825362,-8.923505151383807,-0.11178445635011497,-1.541911681704714,9.532343886514553,-0.0588828325266234,-0.013188712201334218,0.05999569303730508,7.385664770661678,68.19997882804222,-82.875
1772747073.5963907,119.15710279706589,1.6892941125940937,-8.912474263813186,-0.11041912103983158,-1.484466353047717,9.581736505902297,0.021865965590847317,-0.02941581150522806,0.03490658503988659,7.385664770661678,68.19997882804222,-82.875
1772747073.615463,119.15710279706589,1.6892941125940937,-8.912474263813186,-0.11041912103983158,-1.484466353047717,9.581736505902297,0.021865965590847317,-0.02941581150522806,0.03490658503988659,7.385664770661678,68.19997882804222,-82.875
1772747073.6740248,119.45665002951836,1.6743010079018261,-8.918354829466919,-0.03257304451252356,-1.4461081332831336,9.547704508206744,-0.020680032954380933,-0.027305480547006742,0.11126473981463851,6.135142583086432,68.51038261085104,-80.875
1772747073.70526,120.35250465219963,1.7153826473247795,-8.91287074509817,-0.07761280716087507,-1.5177519158676736,9.525056593902676,0.015320990095055801,-0.029426784972978192,0.25089107997418486,6.135142583086432,68.51038261085104,-80.875
1772747073.7236257,120.35250465219963,1.7153826473247795,-8.91287074509817,-0.07761280716087507,-1.5177519158676736,9.525056593902676,0.015320990095055801,-0.029426784972978192,0.25089107997418486,6.135142583086432,68.51038261085104,-80.875
1772747073.7543936,121.05472491442772,1.7378810695950941,-8.915974904051541,-0.10095213695610648,-1.531967765829389,9.483223766268543,-0.01742949214198543,-0.01421004282154864,0.20725784867432664,5.448167493880457,68.19673037220058,-80.5
1772747073.789338,121.05472491442772,1.7378810695950941,-8.915974904051541,-0.10095213695610648,-1.531967765829389,9.483223766268543,-0.01742949214198543,-0.01421004282154864,0.20725784867432664,5.448167493880457,68.19673037220058,-80.5
1772747073.8153286,121.51365843151036,1.732013252118232,-8.92576526103381,-0.11648420021743623,-1.5414282551774614,9.609259625318023,-0.002135935716304959,-0.02727438905504804,0.2083486794568231,5.448167493880457,68.19673037220058,-80.5
1772747073.8384407,-59.650439303289765,5.101676300046041,0.9199222109798249,-0.1268318317915725,-1.5410338911466992,9.629577959163587,0.0033108948850212186,-0.02290192750139525,0.1832595714594046,6.135666527577019,68.19788305007987,-79.25
1772747073.8685377,122.16097533271433,1.7260434939949367,-8.91714238218721,-0.12371078644216213,-1.5240290857939225,9.64309958336715,-0.011955227871283926,-0.02620002000737465,0.20398535632683726,6.135666527577019,68.19788305007987,-79.25
1772747073.9010684,122.90787234680349,1.7371060805589194,-8.903611518027217,-0.1383312582091839,-1.5294661552616478,9.652098073228181,0.001127407475132357,-0.021814756074680038,0.22471114119426994,6.136400049863842,67.76038366500023,-78.875
1772747073.983091,123.43910642293704,1.7689548366845742,-8.89844392785732,-0.14802736791405652,-1.5531551062903148,9.71160825502809,1.6460201625196822e-05,-0.009817463243687277,0.17671458676442586,6.136400049863842,67.76038366500023,-78.875
1772747074.012359,123.97719328179596,1.791848332959337,-8.89600243680055,-0.15442393571882443,-1.60237090863354,9.75121161624364,-0.003237738433353677,-0.02073124247054821,0.18871372537188688,5.8856668789600874,68.1974638944874,-77.6875
1772747074.061656,124.46957388115477,1.7987401754565628,-8.887482729212339,-0.19882206420643625,-1.6351907771858405,9.790947657563336,-0.002128620071138205,-0.031637706052242386,0.20943951023931956,5.8856668789600874,68.1974638944874,-77.6875
1772747074.1044436,124.87981741519765,1.8084416741810754,-8.89321203164494,-0.19504083945938216,-1.5833835940698076,9.80066599064433,-0.017409374117776856,-0.02620916456383309,0.17235126363444003,6.572641968166063,68.51111613313786,-76.875
1772747074.148505,125.43813101774083,1.7699099129217666,-8.904751157135655,-0.19254130209662046,-1.5388711714132721,9.807133432748838,-0.007597397607964646,-0.022920216614312136,0.20725784867432664,6.572641968166063,68.51111613313786,-76.875
1772747074.2066238,126.0901032659093,1.7798780449240745,-8.897632219804214,-0.19087788790336438,-1.5092486513716892,9.811437443223326,-0.005417568020659161,-0.02182572954243017,0.20180369476184434,4.762030715859424,67.38307883631626,-74.875
1772747074.263334,126.58775928732341,1.7906157118642205,-8.726306544433719,-0.22656708140153267,-1.4895968885695472,9.824337049237108,0.07310933554979723,-0.014058243184338492,0.16253378659197193,4.762030715859424,67.38307883631626,-74.875
1772747074.326314,126.34072686202019,1.806876048824652,-8.598772610863016,-0.32796758024827605,-1.0518192654805867,9.83292159294124,2.3775846791950967e-05,-0.014180780240881624,-0.07635815477475191,5.447014816001164,68.88422940589713,-74.5
1772747074.3564517,126.34072686202019,1.806876048824652,-8.598772610863016,-0.32796758024827605,-1.0518192654805867,9.83292159294124,2.3775846791950967e-05,-0.014180780240881624,-0.07635815477475191,5.447014816001164,68.88422940589713,-74.5
1772747074.3858678,126.2430535010228,1.7927789404319285,-8.691157420062865,-0.3954484795129927,-0.7604831476113596,9.878775851368536,-0.017409374117776856,-0.02620916456383309,-0.02945243112740431,5.447014816001164,68.88422940589713,-74.5
1772747074.4132614,126.30066753277578,1.8063224432340892,-8.750075547801346,-0.30586774826392255,-0.9744809307324803,9.69854931056515,-0.036037601275270496,0.023937889411943178,0.05126904677733343,5.447014816001164,68.88422940589713,-74.5
1772747074.461919,126.26544885631967,1.841861035063988,-8.628483633817169,-0.24603964971350872,-1.2440081311026785,9.802733045313271,0.06108095122684578,0.0033749067802303174,-0.05345070834232634,5.8856668789600874,68.1974638944874,-75.6875
1772747074.5440555,125.74980244201849,1.822109350516055,-8.59912885597036,-0.25974643054237034,-1.4234652079588317,9.788438364296589,0.0032523697236871854,0.012004608476159516,-0.1559888018969932,5.8856668789600874,68.1974638944874,-75.6875
1772747074.6051052,124.37971067016376,1.7117943133321911,-8.66398729487736,-0.3062352064093842,-1.5443884659615505,9.79930826513441,-0.006590698278083732,0.02725975776471453,-0.19744037163185854,6.573899434943473,67.76111718728706,-77.25
1772747074.667034,124.0642722723696,1.6981637302280506,-8.634503835826468,-0.3400593549452957,-1.5565301270954917,9.792849434759496,0.0076156867208815315,0.01201192412132627,-0.14180800172453928,6.134513849697726,68.88538208377643,-78.0625
1772747074.7163825,123.72236427926352,1.6942167822914018,-8.64328681774904,-0.29570045877701945,-1.544427455132581,9.7617902616363,0.002132277893721582,0.02945604755364521,-0.1636246173744684,6.134513849697726,68.88538208377643,-78.0625
1772747074.7388573,123.42688191523995,1.6965935611866916,-8.660920254041494,-0.28621709999760186,-1.5564775551056191,9.751156063998467,0.013040570386707447,0.029474336666562094,-0.1712604328519436,7.383883359393679,69.26247733466418,-80.0625
1772747074.7830756,122.95080476151205,1.6823291337473547,-8.671537786664405,-0.27990603066595826,-1.5644967620292394,9.734043789140301,-0.0011328942090074227,0.025087243822575798,-0.20398535632683726,7.383883359393679,69.26247733466418,-80.0625
1772747074.8672013,122.2237443395164,1.6653244760591157,-8.671151805015894,-0.2757060845250132,-1.5698334546564978,9.71596553796419,0.013058859499624332,0.018566044173576234,-0.12762720155208535,5.8856668789600874,68.1974638944874,-80.875
1772747074.9218097,121.79820772901228,1.6426558315357314,-8.674846162504297,-0.2361541496462883,-1.5499075215652764,9.703934663753785,0.0032395673446453657,0.01964041322124962,-0.20943951023931956,5.8856668789600874,68.1974638944874,-80.875
1772747075.0237591,121.09738379747468,1.572746634713463,-8.643075037205604,-0.2031649987537182,-1.5232553906794617,9.655786910872598,0.025081757088700734,0.004405381956903182,-0.13308135546456762,5.882628000914678,70.00996134696015,-82.5
1772747075.0702097,120.47382214181064,1.509928105313192,-8.650434393800918,-0.15442779734594597,-1.5188542554084432,9.6739217947856,-0.0032907768608126447,0.010902805759110798,-0.12435470920459599,6.57316591265665,68.19861657236669,-82.0625
1772747075.1203668,120.1098524350632,1.4710771492175436,-8.631981186305614,-0.1219825172610494,-1.5226155630607967,9.645849016961945,0.010879029912318847,0.017471557101694266,-0.15817046346198613,6.57316591265665,68.19861657236669,-82.0625
1772747075.1553712,120.1098524350632,1.4710771492175436,-8.631981186305614,-0.1219825172610494,-1.5226155630607967,9.645849016961945,0.010879029912318847,0.017471557101694266,-0.15817046346198613,6.57316591265665,68.19861657236669,-82.0625
1772747075.1741273,119.67614844139867,1.4636838215823822,-8.636542006019118,-0.10039054580207722,-1.5251186712868785,9.660618013986971,0.005412081286784096,0.02509821729032593,-0.1461713248545251,7.385664770661678,68.19997882804222,-82.875
1772747075.199731,119.45866731253356,1.475990353957473,-8.631461334596475,-0.1328864790081628,-1.506792338663499,9.670446616526618,0.00869005576855492,0.021831216276305236,-0.11562806294462433,7.385664770661678,68.19997882804222,-82.875
1772747075.2243934,119.45866731253356,1.475990353957473,-8.631461334596475,-0.1328864790081628,-1.506792338663499,9.670446616526618,0.00869005576855492,0.021831216276305236,-0.11562806294462433,7.385664770661678,68.19997882804222,-82.875
1772747075.269481,118.85888219124483,1.4691106226255175,-8.629026963518257,-0.16893185082725581,-1.4697545524338544,9.824002014043387,-0.007655922769298679,0.011986319363242631,-0.1341721862470641,7.635664419278609,68.20039798363469,-84.875
1772747075.3360825,118.38464098929295,1.4550284397529252,-8.64000894996163,-0.22193586651734978,-1.5001270094339914,9.886220418079516,-0.0033035792398544645,0.018538610504200904,-0.14944381720201447,8.385139420638817,68.51415501118326,-85.25
1772747075.3714256,118.38464098929295,1.4550284397529252,-8.64000894996163,-0.22193586651734978,-1.5001270094339914,9.886220418079516,-0.0033035792398544645,0.018538610504200904,-0.14944381720201447,8.385139420638817,68.51415501118326,-85.25
1772747075.4233794,117.77957531804442,1.4226135867314391,-8.639479865485562,-0.1680415109215605,-1.578171927325517,9.73109404597659,0.0185239792138674,0.012030213234243156,-0.12544553998709243,9.448895394038187,67.76593747660047,-86.5
1772747075.4681733,117.77957531804442,1.4226135867314391,-8.639479865485562,-0.1680415109215605,-1.578171927325517,9.73109404597659,0.0185239792138674,0.012030213234243156,-0.12544553998709243,9.448895394038187,67.76593747660047,-86.5
1772747075.5101583,117.20991418846702,1.3831966854635391,-8.640241709167682,-0.12776448643423782,-1.5219439185427959,9.620339389034587,-0.0054797510045765715,0.015262464933721768,-0.17889624832941878,9.448895394038187,67.76593747660047,-86.5
1772747075.5572171,116.68042970862506,1.359277926969804,-8.606846783885462,-0.1110015060678574,-1.4811965252676065,9.580084519123462,0.016333176158811778,0.01748070165815271,-0.1265363707695889,9.137024566655729,67.39041405918448,-88.0625
1772747075.5880945,116.26885602269478,1.3439197775684877,-8.613121034859802,-0.10988125090576217,-1.4540964156885299,9.606817140191078,-0.004390750666569673,0.01635512309431204,-0.18980455615438332,9.137024566655729,67.39041405918448,-88.0625
1772747075.6130054,116.26885602269478,1.3439197775684877,-8.613121034859802,-0.10988125090576217,-1.4540964156885299,9.606817140191078,-0.004390750666569673,0.01635512309431204,-0.18980455615438332,9.137024566655729,67.39041405918448,-88.0625
1772747075.6706684,115.87878791019348,1.3317125433097954,-8.60390459628047,-0.10913012512033966,-1.439406702497371,9.621262289181313,0.015244175820804883,0.016388043497562434,-0.12762720155208535,10.2636996078018,66.39230166488288,-89.6875
1772747075.7302213,115.2402199066372,1.2814265789257973,-8.601010221630654,-0.12196021092132929,-1.4597592594708881,9.630875374471428,-0.0011127761847988487,0.013088122080291349,-0.16907877128695067,10.2636996078018,66.39230166488288,-89.6875
1772747075.7543404,115.2402199066372,1.2814265789257973,-8.601010221630654,-0.12196021092132929,-1.4597592594708881,9.630875374471428,-0.0011127761847988487,0.013088122080291349,-0.16907877128695067,10.2636996078018,66.39230166488288,-89.6875
1772747075.7922146,114.87593548170852,1.2599373112790029,-8.608776491117833,-0.13045923027661094,-1.4967194078234043,9.637272775346801,0.008697371413721674,0.01746789927911089,-0.16035212502697901,10.950150752517189,67.0184534643045,-90.5
1772747075.814621,114.53465907439393,1.2170054529237393,-8.626608434074996,-0.13612644969552043,-1.5146257596687802,9.678326402946224,-0.0032871190382292676,0.008721147260513625,-0.15489797111449674,10.950150752517189,67.0184534643045,-90.5
1772747075.8380616,114.53465907439393,1.2170054529237393,-8.626608434074996,-0.13612644969552043,-1.5146257596687802,9.678326402946224,-0.0032871190382292676,0.008721147260513625,-0.15489797111449674,10.950150752517189,67.0184534643045,-90.5
1772747075.9133635,114.13141593258736,1.170964801287246,-8.628795161881794,-0.13320770690050188,-1.5265310198165851,9.70564713351457,-0.006565093520000093,0.01198814827453432,-0.136353847812057,11.3893267599667,66.0191883921236,-90.0625
1772747075.95887,113.51257993426255,1.1204602845572427,-8.64112800400661,-0.1313326180443293,-1.4943125533865964,9.6636167637835,-0.00546877753682644,0.008717489437930248,-0.11671889372712078,11.3893267599667,66.0191883921236,-90.0625
1772747076.0623074,112.44881695993443,1.0634117927019098,-8.641432178674618,-0.1267396603510045,-1.4728659153921724,9.635646022237465,0.0054321993109926695,0.01309909554804148,-0.13853550937704992,14.391208743535996,64.89921984045705,-92.0625
1772747076.1290221,111.71051370966846,0.9999367880660447,-8.634331885380973,-0.11374312161083541,-1.4017097728180048,9.64379269985079,-0.010928410517194438,0.011980832629367565,-0.19962203319685143,14.391208743535996,64.89921984045705,-92.0625
1772747076.1625044,111.71051370966846,0.9999367880660447,-8.634331885380973,-0.11374312161083541,-1.4017097728180048,9.64379269985079,-0.010928410517194438,0.011980832629367565,-0.19962203319685143,14.391208743535996,64.89921984045705,-92.0625
1772747076.1814377,111.71051370966846,0.9999367880660447,-8.634331885380973,-0.11374312161083541,-1.4017097728180048,9.64379269985079,-0.010928410517194438,0.011980832629367565,-0.19962203319685143,14.391208743535996,64.89921984045705,-92.0625
1772747076.2355673,110.63951304172241,0.936750846098564,-8.629575509672641,-0.11920092649980973,-1.4398488475128377,9.642786850635208,-0.00875223875247233,0.015256978199846703,-0.20180369476184434,15.080070032908086,64.08787366033131,-92.5
1772747076.28377,110.63951304172241,0.936750846098564,-8.629575509672641,-0.12195517726247544,-1.4700776060783323,9.63516439455193,0.00869005576855492,0.021831216276305236,-0.17016960206944712,16.455696833689913,63.715179543164496,-93.6875
1772747076.3304446,110.04216039860893,0.9089131579458404,-8.646440310073428,-0.12195517726247544,-1.4700776060783323,9.63516439455193,0.00869005576855492,0.021831216276305236,-0.17016960206944712,16.455696833689913,63.715179543164496,-93.6875
1772747076.3701787,109.38953651972061,0.8905836021869074,-8.656417886484308,-0.11380886425224415,-1.4567266117023863,9.579915059567133,-0.00330906597372953,0.02181109825209666,-0.16907877128695067,16.455696833689913,63.715179543164496,-93.6875
1772747076.4163127,108.98349956986269,0.8794431402775058,-8.6565110674632,-0.10838758394421416,-1.4478416740855733,9.593323919920051,0.00541939693195085,0.020734900293131586,-0.18544123302439752,17.95370373632727,64.90519280764974,-93.6875
1772747076.4465458,108.98349956986269,0.8794431402775058,-8.6565110674632,-0.10838758394421416,-1.4478416740855733,9.593323919920051,0.00541939693195085,0.020734900293131586,-0.18544123302439752,17.95370373632727,64.90519280764974,-93.6875
1772747076.5087023,108.16600849769925,0.852603584656317,-8.661835606083294,-0.18383394082406862,-1.3991317187818484,9.706348497572264,-3.109149195870511e-05,0.01854409723807597,-0.15162547876700738,17.955065992002798,64.09269394964471,-94.5
1772747076.5468996,108.16600849769925,0.852603584656317,-8.661835606083294,-0.18383394082406862,-1.3991317187818484,9.706348497572264,-3.109149195870511e-05,0.01854409723807597,-0.15162547876700738,17.955065992002798,64.09269394964471,-94.5
1772747076.636241,107.2602220236623,0.7786315852177275,-9.030532327527048,-0.14679632538007806,-1.4989370484125741,9.80309402454818,-0.03381570672825618,-5.6696250042344605e-05,-0.16144295580947549,18.76871752788712,63.40655717162368,-95.25
1772747076.6736562,107.2602220236623,0.7786315852177275,-9.030532327527048,-0.14679632538007806,-1.4989370484125741,9.80309402454818,-0.03381570672825618,-5.6696250042344605e-05,-0.16144295580947549,18.76871752788712,63.40655717162368,-95.25
1772747076.7505176,107.22914174694526,0.7762164432823828,-8.864992151675244,-0.13690719808141455,-1.5495358192974187,9.531104990481426,0.08074514029488734,-0.014045440805296672,0.025089107997418487,17.95936233682562,61.530197551321166,1953.125
1772747076.807657,107.25319932750358,0.7379117291942445,-9.096552309694268,-0.12025712238126392,-1.6032625526625635,9.350099326626589,-0.08940044674890019,-0.02851153120768171,0.014180800172453928,17.95936233682562,61.530197551321166,1953.125
1772747076.8269703,107.25319932750358,0.7379117291942445,-9.096552309694268,-0.12025712238126392,-1.6032625526625635,9.350099326626589,-0.08940044674890019,-0.02851153120768171,0.014180800172453928,17.95936233682562,61.530197551321166,1953.125
1772747076.8906844,107.00828210722814,0.7309720130675745,-9.081435138903219,-0.2020850646736042,-1.6629794768739747,9.568453387610717,-0.01528441186922203,0.007610199987006466,-0.0545415391248228,18.39256537708243,64.09342747193153,-94.875
1772747076.9389088,106.83380365291175,0.7132272501593391,-9.157921585480814,-0.2370451469865586,-1.7859248504726954,9.612457198926876,-0.049103776420061584,0.009735162235561293,-0.07744898555724837,17.95621866988209,63.40519491594816,-92.0625
1772747076.9557078,106.71792159299783,0.7235947314288879,-9.155933090779103,-0.26042286101848655,-1.8008414830996942,9.608290126729806,-0.0011292363864240456,0.022905585323978628,-0.0545415391248228,17.95621866988209,63.40519491594816,-92.0625
1772747077.032979,106.17598715483369,0.7239146294939888,-8.972894012503522,-0.21911364946439016,-1.8106729911682473,9.605516986731901,0.04795625092072066,0.024078715581403197,-0.2181661564992912,16.454334578014386,64.52767840116952,-92.5
1772747077.0870981,106.10197054629249,0.7152231467007577,-9.02398591470995,-0.17540766811074338,-1.512782970002357,9.6036714930413,-0.010899147936527421,-0.005472435359409817,0.09926560120717749,16.454334578014386,64.52767840116952,-92.5
1772747077.1894805,106.07806126813753,0.6964349513125259,-9.046291867806223,-0.16304736077597784,-1.314568531011622,9.7195222473619,0.02398909892811046,0.00549438229491008,0.03490658503988659,15.765682866438532,65.21402475698679,-92.5
1772747077.2353415,105.97377026110607,0.6839549500407602,-9.052462038552399,-0.20493662602292445,-1.2195393404626518,9.72302717266351,-0.005446830601326178,-0.004372461553652788,-0.07417649320975901,15.765682866438532,65.21402475698679,-92.5
1772747077.2863455,105.9837032206235,0.6833618056577362,-9.042529079034987,-0.2325835160571663,-1.2934478629298598,9.748775443250388,0.008722976171805313,0.002196289788930681,0.003272492347489368,16.452553166746387,65.59017690779149,-92.0625
1772747077.3078043,105.9892659410113,0.6838268747579525,-9.04282813435877,-0.2509093021804195,-1.3861195500930343,9.752530182869647,-0.0021816584985971726,-3.6578225833770713e-06,-0.030543261909900768,16.452553166746387,65.59017690779149,-92.0625
1772747077.3923953,105.98383666316234,0.6805159022812906,-9.057858288273128,-0.17268606617613502,-1.5078520195851832,9.755028920143074,-0.0032688299253123823,-0.0021871452324722382,0.003272492347489368,16.452553166746387,65.59017690779149,-92.875
1772747077.442213,105.97377026110607,0.6839549500407602,-9.052462038552399,-0.1408009712641543,-1.5286853430243086,9.756691801885816,-0.0010871714267152092,-0.002183487409888861,0.011999138607461015,16.452553166746387,65.59017690779149,-92.875
1772747077.4711225,105.97253933511509,0.699282880616877,-9.055309691561368,-0.11958740526919749,-1.539204580043918,9.741072872573408,-0.003277974481770825,0.0032670010140206937,0.006544984694978736,16.14120628385452,64.90215392960434,-92.875
1772747077.500302,105.97253933511509,0.699282880616877,-9.055309691561368,-0.11958740526919749,-1.539204580043918,9.741072872573408,-0.003277974481770825,0.0032670010140206937,0.006544984694978736,16.14120628385452,64.90215392960434,-92.875
1772747077.583185,105.97160602765773,0.7104059859670874,-9.063719589473477,-0.1055092734944406,-1.5227892657332924,9.74740420812747,-0.0021816584985971726,-3.6578225833770713e-06,0.007635815477475192,16.14120628385452,64.90215392960434,-92.875
1772747077.6546657,105.98574456475542,0.7284551657084108,-9.041598912639826,-0.15116307122437211,-1.5202807878871671,9.74663607320231,-0.0021853163211805497,0.0021780006760137955,-0.00545415391248228,16.14319727291875,63.71465559867391,-92.75
1772747077.7460415,106.009146132168,0.7292412733478981,-8.890811507733526,-0.18342860498430452,-1.486875288720996,9.754451567708301,0.03269744380958226,0.01641730607822945,-0.05890486225480862,16.141835017243224,64.52715445667894,-92.5
1772747077.8472884,105.99346995888665,0.684125865589064,-9.042363012183166,-0.20490095727191107,-1.4646443021897857,9.759652691997244,-0.01200095065357614,0.0010707112250900126,-0.016362461737446838,16.141835017243224,64.52715445667894,-92.5
1772747077.900288,105.97903274917553,0.6790859832047511,-8.943200028082828,-0.1288782871938031,-1.4463532927778069,9.719627529916018,0.016373412207228925,-0.006517541826416191,0.002181661564992912,17.64120417555611,64.90466886315916,-91.6875
1772747077.9661875,106.0235015319609,0.683930306411735,-8.95260376289179,-0.07826361552921798,-1.4475612583607258,9.692991231661319,-0.012004608476159516,0.0032523697236871854,0.0,17.64120417555611,64.90466886315916,-91.6875
1772747078.021879,106.03389394083091,0.6777597615647414,-8.938469301471624,-0.07803118699593507,-1.448421230853481,9.712061301500277,-0.004365145908486034,0.0010835136041318322,0.007635815477475192,17.64319516462034,63.717170532228735,-92.5
1772747078.0421586,106.10316556321392,0.6887776421581973,-8.94226772352271,-0.07774190466459432,-1.5292761010766536,9.728097331658786,-0.0021816584985971726,-3.6578225833770713e-06,0.016362461737446838,17.64319516462034,63.717170532228735,-92.5
1772747078.1172798,106.2166492343989,0.7102911075995874,-8.924767617773222,-0.07754939050458243,-1.5830841140020937,9.735424018887759,0.010917437049444307,-0.005435857133576047,0.03381575425739013,17.95621866988209,63.40519491594816,-93.25
1772747078.1430068,106.2166492343989,0.7102911075995874,-8.924767617773222,-0.07754939050458243,-1.5830841140020937,9.735424018887759,0.010917437049444307,-0.005435857133576047,0.03381575425739013,17.95621866988209,63.40519491594816,-93.25
1772747078.1790977,106.40958327335082,0.7365564152317936,-8.931709264850271,-0.11431840434797311,-1.5587425128075618,9.69346828349171,-0.0021670272082636643,-0.008730291816972068,0.05890486225480862,17.95621866988209,63.40519491594816,-93.25
1772747078.2493072,106.80691482408406,0.7912747307370528,-8.885924184014225,-0.1316897652663271,-1.5116532517437202,9.670381829877543,-0.0010835136041318322,-0.004365145908486034,0.07744898555724837,17.955065992002798,64.09269394964471,-92.75
1772747078.2832913,106.80691482408406,0.7912747307370528,-8.885924184014225,-0.1316897652663271,-1.5116532517437202,9.670381829877543,-0.0010835136041318322,-0.004365145908486034,0.07744898555724837,17.955065992002798,64.09269394964471,-92.75
1772747078.3135386,-59.17561869056703,5.380011785997749,1.1624739230508967,-0.1268651680552833,-1.5513080965536838,9.680289438640145,-0.0021780006760137955,-0.0021853163211805497,0.05672320068981571,19.89434468005202,63.033443898864405,-94.5
1772747078.3356998,-59.17561869056703,5.380011785997749,1.1624739230508967,-0.1268651680552833,-1.5513080965536838,9.680289438640145,-0.0021780006760137955,-0.0021853163211805497,0.05672320068981571,19.89434468005202,63.033443898864405,-94.5
1772747078.3829713,107.13008899093549,0.8271640540683576,-8.821974067720673,-0.11708762525490332,-1.5040943816983845,9.680192618181774,0.030559679181985617,-0.009766253727519998,0.07744898555724837,19.89434468005202,63.033443898864405,-94.5
1772747078.4596765,107.13008899093549,0.8271640540683576,-8.821974067720673,-0.11708762525490332,-1.5040943816983845,9.680192618181774,0.030559679181985617,-0.009766253727519998,0.07744898555724837,19.89434468005202,63.033443898864405,-94.5
1772747078.5759442,108.34032254565795,0.8749323003414875,-8.779470356441339,-0.17295597275158,-1.5410044740227462,9.685656552032004,-0.004335883327819017,-0.01636975438464555,0.1265363707695889,19.456216561583684,63.40770984950298,-94.875
1772747078.6291852,108.34032254565795,0.8749323003414875,-8.779470356441339,-0.17295597275158,-1.5410044740227462,9.685656552032004,-0.004335883327819017,-0.01636975438464555,0.1265363707695889,19.456216561583684,63.40770984950298,-94.875
1772747078.671618,108.73361127802133,0.9271839485615788,-8.757890207650519,-0.18782330613249235,-1.5441362359516666,9.68710948389679,0.01855872852840948,-0.008695542502429985,0.11562806294462433,20.5837299139147,61.9095981579675,-95.6875
