timestamp,yaw,pitch,roll,ax,ay,az,gx,gy,gz,mx,my,mz
1772908533.2662718,177.1230069540371,0.8707041932585781,-9.190104998819075,-0.14822521872695518,-1.5746580671933552,9.776789932214461,0.0,-0.001090830782496456,0.0,1.5625,-16.875,-26.375
1772908533.2807143,177.0882013978986,0.8679098973867571,-9.190435841383497,-0.14881890288839453,-1.573099891683158,9.77451862404021,0.001090830782496456,0.002181661564992912,0.0,2.0,-16.1875,-28.0
1772908533.3019276,177.0458794969727,0.8715268992518695,-9.191027549975582,-0.1492139930659458,-1.5687178315797632,9.769661982115103,-0.001090830782496456,-0.003272492347489368,0.0,2.0,-16.1875,-28.0
1772908533.323546,177.0458794969727,0.8715268992518695,-9.191027549975582,-0.1492139930659458,-1.5687178315797632,9.769661982115103,-0.001090830782496456,-0.003272492347489368,0.0,2.0,-16.1875,-28.0
1772908533.3631682,177.2422882055083,0.855794759384642,-9.336144530163024,-0.1494769211656597,-1.5658016195317728,9.766429941166189,-0.05235987755982989,-0.001090830782496456,0.011999138607461015,-0.1875,-19.75,-26.75
1772908533.3824012,177.39885274043667,0.8345808718678567,-9.284981642355339,-0.1429616734642812,-1.9150976422585935,9.76427905401895,0.02181661564992912,-0.037088246604879506,0.08835729338221293,-0.1875,-19.75,-26.75
1772908533.393998,177.39885274043667,0.8345808718678567,-9.284981642355339,-0.1429616734642812,-1.9150976422585935,9.76427905401895,0.02181661564992912,-0.037088246604879506,0.08835729338221293,-0.1875,-19.75,-26.75
1772908533.4068267,177.43256167348804,0.8595961855798183,-9.229249777033845,-0.2423243118260003,-2.1475502434910556,9.782918332893361,0.039269908169872414,0.02945243112740431,0.015271630954950384,-0.1875,-19.75,-26.75
1772908533.4290192,177.3641587477377,0.8412909696460305,-9.173061809429148,-0.3853866069706724,-1.9643885705063047,9.795322564769895,0.038179077387375956,-0.01090830782496456,-0.050178215994836975,1.25,-17.6875,-27.0625
1772908533.443228,177.3641587477377,0.8412909696460305,-9.173061809429148,-0.3853866069706724,-1.9643885705063047,9.795322564769895,0.038179077387375956,-0.01090830782496456,-0.050178215994836975,1.25,-17.6875,-27.0625
1772908533.4577208,177.30201809531138,0.8288181464021305,-9.194630820699551,-0.4805929662789021,-1.7755942890385157,9.80357744251938,-0.025089107997418487,0.003272492347489368,0.001090830782496456,1.25,-17.6875,-27.0625
1772908533.4779274,177.30201809531138,0.8288181464021305,-9.194630820699551,-0.4805929662789021,-1.7755942890385157,9.80357744251938,-0.025089107997418487,0.003272492347489368,0.001090830782496456,1.25,-17.6875,-27.0625
1772908533.5159936,177.38555030887758,0.8272560043849787,-9.2496303845614,-0.29975858023949525,-1.6499538036920118,9.799035636326677,-0.039269908169872414,-0.00545415391248228,0.0545415391248228,1.25,-17.6875,-27.0625
1772908533.546518,177.5049565730774,0.8299145066224559,-9.24895952980341,-0.1794153163827217,-1.576376799312054,9.775942444796815,0.01090830782496456,0.001090830782496456,-0.007635815477475192,0.875,-16.875,-31.875
1772908533.5633223,177.5049565730774,0.8299145066224559,-9.24895952980341,-0.1794153163827217,-1.576376799312054,9.775942444796815,0.01090830782496456,0.001090830782496456,-0.007635815477475192,0.875,-16.875,-31.875
1772908533.816957,0.0,0.0,0.0,-0.18871651587330307,-1.481446234064505,9.5797224407246,-0.003272492347489368,0.002181661564992912,-0.001090830782496456,1.25,-17.25,-41.0
1772908533.9082046,177.56541282776075,0.8631487122896869,-9.234930476281876,-0.13896918004134956,-1.4508564472485606,9.52963861179297,0.007635815477475192,-0.00545415391248228,0.028361600344907856,1.25,-17.25,-41.0
1772908533.953752,177.5586308619434,0.8720755123259809,-9.115694618374334,-0.19952601156428046,-1.4304992858328582,9.496308383111998,0.031634092692397225,-0.014180800172453928,0.019634954084936207,0.875,-15.5,-43.0
1772908533.975846,177.5586308619434,0.8720755123259809,-9.115694618374334,-0.19952601156428046,-1.4304992858328582,9.496308383111998,0.031634092692397225,-0.014180800172453928,0.019634954084936207,0.875,-15.5,-43.0
1772908534.004234,177.51790884513954,0.8464496026352335,-9.17856498934998,-0.14616277867371627,-1.0389541993880111,9.584516174589401,-0.038179077387375956,-0.02181661564992912,-0.014180800172453928,0.875,-15.5,-43.0
1772908534.0472865,177.55203014034055,0.8549097243798122,-9.241954869520288,-0.13406592524265146,-0.7783853182041678,9.643217474472019,-0.020725784867432664,0.002181661564992912,0.007635815477475192,0.5,-15.0625,-41.75
1772908534.0707207,177.55203014034055,0.8549097243798122,-9.241954869520288,-0.13406592524265146,-0.7783853182041678,9.643217474472019,-0.020725784867432664,0.002181661564992912,0.007635815477475192,0.5,-15.0625,-41.75
1772908534.085974,177.55203014034055,0.8549097243798122,-9.241954869520288,-0.13406592524265146,-0.7783853182041678,9.643217474472019,-0.020725784867432664,0.002181661564992912,0.007635815477475192,0.5,-15.0625,-41.75
1772908534.1066413,177.5173042470282,0.852979554678608,-9.199909320214745,-0.1260156044149848,-1.1736486287657384,9.60534496453907,0.015271630954950384,0.002181661564992912,0.006544984694978736,0.5,-15.0625,-41.75
1772908534.1388311,177.51038624544844,0.8528617208596122,-9.178793556725282,-0.12065820583214863,-1.4366919465639763,9.58014123224235,-0.001090830782496456,0.001090830782496456,0.016362461737446838,1.5625,-14.6875,-43.375
1772908534.1777782,177.53117017931032,0.8535149301190541,-9.228023421662687,-0.19737559789699982,-1.564912772269841,9.6637217811626,-0.003272492347489368,0.003272492347489368,-0.01090830782496456,1.5625,-14.6875,-43.375
1772908534.1995378,177.53117017931032,0.8535149301190541,-9.228023421662687,-0.19737559789699982,-1.564912772269841,9.6637217811626,-0.003272492347489368,0.003272492347489368,-0.01090830782496456,1.5625,-14.6875,-43.375
1772908534.2478054,177.5173042470282,0.852979554678608,-9.199909320214745,-0.1714925960583907,-1.650242299456621,9.71934370281312,0.022907446432425576,0.004363323129985824,-0.00545415391248228,0.875,-15.0625,-42.0625
1772908534.282101,177.51733530196975,0.8532732853735513,-9.185789863753259,-0.15426774746687164,-1.7070281466061485,9.756359470333965,-0.008726646259971648,-0.004363323129985824,0.0,0.875,-15.0625,-42.0625
1772908534.3307219,177.5172887759509,0.8528326893395441,-9.206969249686132,-0.14280480314338198,-1.7515087169593215,9.717435927686802,-0.016362461737446838,-0.002181661564992912,0.008726646259971648,1.5625,-14.6875,-42.0625
1772908534.344436,177.5172887759509,0.8528326893395441,-9.206969249686132,-0.14280480314338198,-1.7515087169593215,9.717435927686802,-0.016362461737446838,-0.002181661564992912,0.008726646259971648,1.5625,-14.6875,-42.0625
1772908534.37002,177.51731975570064,0.8531264200232768,-9.192849524936168,-0.13517634174557788,-1.647305571356055,9.751744755591325,0.008726646259971648,0.001090830782496456,-0.006544984694978736,1.5625,-14.6875,-42.0625
1772908534.4007335,177.51731975570064,0.8531264200232768,-9.192849524936168,-0.13009968590083665,-1.5779595419824877,9.774576897307066,-0.009817477042468103,-0.001090830782496456,0.002181661564992912,2.0,-15.0625,-43.25
1772908534.4209144,177.51731975570064,0.8531264200232768,-9.192849524936168,-0.12672122814612294,-1.5318105340802837,9.789771432567155,-0.007635815477475192,-0.001090830782496456,0.001090830782496456,2.0,-15.0625,-43.25
1772908534.4344945,177.51731975570064,0.8531264200232768,-9.192849524936168,-0.12672122814612294,-1.5318105340802837,9.789771432567155,-0.007635815477475192,-0.001090830782496456,0.001090830782496456,2.0,-15.0625,-43.25
1772908534.4466324,177.51731975570064,0.8531264200232768,-9.192849524936168,-0.1244729022502069,-1.6047973477664643,9.746361438731556,0.0,-0.001090830782496456,-0.003272492347489368,2.0,-15.0625,-43.25
1772908534.4605556,177.51731975570064,0.8531264200232768,-9.192849524936168,-0.1244729022502069,-1.6047973477664643,9.746361438731556,0.0,-0.001090830782496456,-0.003272492347489368,2.0,-15.0625,-43.25
1772908534.4813511,177.51731975570064,0.8531264200232768,-9.192849524936168,-0.12297666648192067,-1.6533692569584868,9.71747257275537,0.006544984694978736,-0.001090830782496456,-0.00545415391248228,2.0,-14.6875,-42.5
1772908534.4967842,177.51731975570064,0.8531264200232768,-9.192849524936168,-0.12198093829217486,-1.6321715326248905,9.738388695645826,0.0,0.001090830782496456,-0.002181661564992912,2.0,-14.6875,-42.5
1772908534.5113616,177.51731975570064,0.8531264200232768,-9.192849524936168,-0.12131829230491173,-1.5879586785091038,9.758998365195662,-0.00545415391248228,-0.002181661564992912,0.001090830782496456,2.0,-14.6875,-42.5
1772908534.5278318,177.51731975570064,0.8531264200232768,-9.192849524936168,-0.12131829230491173,-1.5879586785091038,9.758998365195662,-0.00545415391248228,-0.002181661564992912,0.001090830782496456,2.0,-14.6875,-42.5
1772908534.550745,177.51731975570064,0.8531264200232768,-9.192849524936168,-0.1208773088026288,-1.5585355179849893,9.772713870055984,-0.007635815477475192,-0.001090830782496456,0.004363323129985824,1.5625,-14.6875,-44.0625
1772908534.5631745,177.51731975570064,0.8531264200232768,-9.192849524936168,-0.12727406262260677,-1.5958216323588597,9.758425603377065,0.002181661564992912,-0.002181661564992912,0.0,1.5625,-14.6875,-44.0625
1772908534.5766249,177.51731975570064,0.8531264200232768,-9.192849524936168,-0.12727406262260677,-1.5958216323588597,9.758425603377065,0.002181661564992912,-0.002181661564992912,0.0,1.5625,-14.6875,-44.0625
1772908534.5951285,177.51731975570064,0.8531264200232768,-9.192849524936168,-0.1315310308333799,-1.6206351249614817,9.748916921512642,0.002181661564992912,0.0,-0.002181661564992912,1.5625,-14.6875,-44.0625
1772908534.6244185,177.51731975570064,0.8531264200232768,-9.192849524936168,-0.1310188839168793,-1.6103873334450973,9.749279223365443,-0.001090830782496456,-0.002181661564992912,0.002181661564992912,1.5625,-15.0625,-43.6875
1772908534.6426673,177.51731975570064,0.8531264200232768,-9.192849524936168,-0.13067805586500406,-1.6035675426662754,9.749520331201305,-0.003272492347489368,-0.001090830782496456,0.002181661564992912,1.5625,-15.0625,-43.6875
1772908534.6703048,177.51731975570064,0.8531264200232768,-9.192849524936168,-0.13067805586500406,-1.6035675426662754,9.749520331201305,-0.003272492347489368,-0.001090830782496456,0.002181661564992912,1.5625,-15.0625,-43.6875
1772908534.6859126,177.51731975570064,0.8531264200232768,-9.192849524936168,-0.1337963503110993,-1.6090643832069822,9.746335674065401,0.001090830782496456,0.0,0.0,0.875,-14.6875,-43.25
1772908534.7045798,177.51731975570064,0.8531264200232768,-9.192849524936168,-0.1358715404313443,-1.6127224691830904,9.744216320316408,0.001090830782496456,0.001090830782496456,-0.001090830782496456,0.875,-14.6875,-43.25
1772908534.7398632,177.51731975570064,0.8531264200232768,-9.192849524936168,-0.1372525562749748,-1.5984313260000957,9.756186360900463,0.0,-0.001090830782496456,-0.001090830782496456,1.5625,-15.5,-43.25
1772908534.7865682,177.51731975570064,0.8531264200232768,-9.192849524936168,-0.1381716068919531,-1.5889207298543424,9.764152289195037,-0.001090830782496456,-0.003272492347489368,-0.001090830782496456,1.5625,-15.5,-43.25
1772908534.8185003,177.51731975570064,0.8531264200232768,-9.192849524936168,-0.14212833651840345,-1.5926268694816217,9.769453525489826,0.001090830782496456,-0.003272492347489368,0.001090830782496456,1.5625,-15.5,-43.25
1772908534.8490143,177.51731975570064,0.8531264200232768,-9.192849524936168,-0.14212833651840345,-1.5926268694816217,9.769453525489826,0.001090830782496456,-0.003272492347489368,0.001090830782496456,1.5625,-15.5,-43.25
1772908534.8617878,177.51731975570064,0.8531264200232768,-9.192849524936168,-0.14141638417792077,-1.5950932640032838,9.77632655073264,0.001090830782496456,-0.001090830782496456,0.0,2.6875,-15.5,-43.25
1772908534.875715,177.51731975570064,0.8531264200232768,-9.192849524936168,-0.14141638417792077,-1.5950932640032838,9.77632655073264,0.001090830782496456,-0.001090830782496456,0.0,2.6875,-15.5,-43.25
1772908534.9083483,177.51731975570064,0.8531264200232768,-9.192849524936168,-0.1409425878483583,-1.5933895102986986,9.780900472255007,-0.002181661564992912,0.001090830782496456,0.001090830782496456,2.6875,-15.5,-43.25
1772908534.9414694,177.51731975570064,0.8531264200232768,-9.192849524936168,-0.13728216997636689,-1.592255681240473,9.773909030812135,0.0,0.001090830782496456,-0.003272492347489368,0.875,-15.5,-44.0625
1772908534.9635148,177.51731975570064,0.8531264200232768,-9.192849524936168,-0.13728216997636689,-1.592255681240473,9.773909030812135,0.0,0.001090830782496456,-0.003272492347489368,0.875,-15.5,-44.0625
1772908534.983397,177.51731975570064,0.8531264200232768,-9.192849524936168,-0.13484620277210344,-1.5915011306679243,9.769256304631421,-0.001090830782496456,-0.002181661564992912,0.001090830782496456,0.875,-15.5,-44.0625
1772908535.0008776,177.51731975570064,0.8531264200232768,-9.192849524936168,-0.13322509380920275,-1.5943440973980947,9.766159967332513,-0.002181661564992912,0.001090830782496456,0.0,0.875,-15.0625,-43.6875
1772908535.0407453,177.51731975570064,0.8531264200232768,-9.192849524936168,-0.13322509380920275,-1.5943440973980947,9.766159967332513,-0.002181661564992912,0.001090830782496456,0.0,0.875,-15.0625,-43.6875
1772908535.0573132,177.51731975570064,0.8531264200232768,-9.192849524936168,-0.1354913756106854,-1.5928909482916844,9.764099389448443,-0.001090830782496456,0.003272492347489368,0.0,0.875,-15.0625,-43.6875
1772908535.0770345,177.51731975570064,0.8531264200232768,-9.192849524936168,-0.1354913756106854,-1.5928909482916844,9.764099389448443,-0.001090830782496456,0.003272492347489368,0.0,0.875,-15.0625,-43.6875
1772908535.0900767,177.51731975570064,0.8531264200232768,-9.192849524936168,-0.13699956083354559,-1.5919238937941076,9.762728097884759,-0.001090830782496456,-0.001090830782496456,0.0,1.25,-14.6875,-42.875
1772908535.1302285,177.51731975570064,0.8531264200232768,-9.192849524936168,-0.13800324125182623,-1.5912803298286768,9.761815518667458,0.0,-0.002181661564992912,0.001090830782496456,1.25,-14.6875,-42.875
1772908535.1970785,177.51731975570064,0.8531264200232768,-9.192849524936168,-0.13867117935834708,-1.590852045198763,9.7578630956852,0.002181661564992912,-0.002181661564992912,0.0,1.5625,-15.75,-42.5
1772908535.2152245,177.51731975570064,0.8531264200232768,-9.192849524936168,-0.13911568470687916,-1.5939121382691277,9.755232802341967,0.001090830782496456,0.0,0.0,1.5625,-15.75,-42.5
1772908535.2762587,177.51731975570064,0.8531264200232768,-9.192849524936168,-0.13911568470687916,-1.5939121382691277,9.755232802341967,0.001090830782496456,0.0,0.0,1.5625,-15.75,-42.5
1772908535.318896,177.51731975570064,0.8531264200232768,-9.192849524936168,-0.13941149805087716,-1.595948596023976,9.756827483211666,0.001090830782496456,-0.001090830782496456,-0.001090830782496456,1.5625,-15.5,-43.25
1772908535.3817546,177.51731975570064,0.8531264200232768,-9.192849524936168,-0.13960835852685627,-1.6006489476184234,9.757888725516699,0.001090830782496456,-0.003272492347489368,0.001090830782496456,1.5625,-15.5,-43.25
1772908535.458505,177.51731975570064,0.8531264200232768,-9.192849524936168,-0.13973936697454475,-1.5937416439762022,9.758594970415844,0.0,0.001090830782496456,-0.002181661564992912,2.25,-15.0625,-42.875
1772908535.4860406,177.51731975570064,0.8531264200232768,-9.192849524936168,-0.13973936697454475,-1.5937416439762022,9.758594970415844,0.0,0.001090830782496456,-0.002181661564992912,2.25,-15.0625,-42.875
1772908535.5165284,177.51731975570064,0.8531264200232768,-9.192849524936168,-0.1398265516330212,-1.5891449105619413,9.759064968506953,0.002181661564992912,-0.002181661564992912,-0.002181661564992912,2.25,-15.0625,-42.875
1772908535.5484698,177.51731975570064,0.8531264200232768,-9.192849524936168,-0.13988457204932084,-1.5860858358236274,9.759377746986363,0.0,-0.001090830782496456,0.002181661564992912,2.25,-15.5,-42.875
1772908535.583211,177.51731975570064,0.8531264200232768,-9.192849524936168,-0.13992318398823772,-1.5873951674647029,9.759585897570446,0.002181661564992912,-0.003272492347489368,0.001090830782496456,2.25,-15.5,-42.875
1772908535.643602,177.51731975570064,0.8531264200232768,-9.192849524936168,-0.14329399150958266,-1.5882665130456457,9.766414642873597,0.0,-0.001090830782496456,-0.002181661564992912,2.0,-15.5,-43.6875
1772908535.6701071,177.51731975570064,0.8531264200232768,-9.192849524936168,-0.1455372262606505,-1.5888463837961952,9.770959096590762,0.001090830782496456,-0.001090830782496456,-0.002181661564992912,2.0,-15.5,-43.6875
1772908535.7063003,177.51731975570064,0.8531264200232768,-9.192849524936168,-0.14703007392891204,-1.5892322813031052,9.767293156360022,0.0,-0.001090830782496456,0.001090830782496456,1.25,-15.5,-43.6875
1772908535.7601283,177.51731975570064,0.8531264200232768,-9.192849524936168,-0.14703007392891204,-1.5892322813031052,9.767293156360022,0.0,-0.001090830782496456,0.001090830782496456,1.25,-15.5,-43.6875
1772908535.7949545,177.51731975570064,0.8531264200232768,-9.192849524936168,-0.1446784356686196,-1.5894890917831963,9.76150840238038,-0.001090830782496456,0.0,0.0,2.0,-15.0625,-42.0625
1772908535.839358,177.51731975570064,0.8531264200232768,-9.192849524936168,-0.1431134466759156,-1.5930051079962553,9.757658713226865,0.001090830782496456,0.001090830782496456,-0.001090830782496456,2.0,-15.0625,-42.0625
1772908535.9027889,177.51731975570064,0.8531264200232768,-9.192849524936168,-0.14207196398334362,-1.591999865802252,9.758441899806366,0.0,0.001090830782496456,0.0,1.25,-14.6875,-42.5
1772908535.9324899,177.51731975570064,0.8531264200232768,-9.192849524936168,-0.14472398059288033,-1.5946760000587534,9.758963101726255,0.0,0.001090830782496456,-0.002181661564992912,1.25,-14.6875,-42.5
1772908535.988249,177.51731975570064,0.8531264200232768,-9.192849524936168,-0.14314375631424098,-1.5964569375120765,9.759309955781736,0.001090830782496456,0.001090830782496456,-0.001090830782496456,2.0,-14.25,-43.6875
1772908536.0349874,177.51731975570064,0.8531264200232768,-9.192849524936168,-0.1454372464163877,-1.5976421314928881,9.759540783281045,0.0,-0.002181661564992912,-0.001090830782496456,2.0,-14.25,-43.6875
1772908536.0851688,177.51731975570064,0.8531264200232768,-9.192849524936168,-0.1436184267520838,-1.5984308648476342,9.76303950811064,0.0,0.002181661564992912,-0.001090830782496456,2.0,-14.6875,-43.6875
1772908536.118508,177.51731975570064,0.8531264200232768,-9.192849524936168,-0.1424080225830365,-1.5956106463771693,9.76536787040142,0.0,0.001090830782496456,0.0,2.0,-14.6875,-43.6875
1772908536.1462395,177.51731975570064,0.8531264200232768,-9.192849524936168,-0.1424080225830365,-1.5956106463771693,9.76536787040142,0.0,0.001090830782496456,0.0,2.0,-14.6875,-43.6875
1772908536.1814616,177.51731975570064,0.8531264200232768,-9.192849524936168,-0.141602512129636,-1.5937338224889794,9.766917369496422,0.0,-0.002181661564992912,0.0,0.5,-14.6875,-42.875
1772908536.20535,0.03463485142896137,-0.07965625308200634,-0.021847466646045293,-0.14106645392103934,-1.5924848171568857,9.764603432127789,0.0,0.002181661564992912,0.0,0.5,-14.6875,-42.875
1772908536.2243342,0.03463485142896137,-0.07965625308200634,-0.021847466646045293,-0.14106645392103934,-1.5924848171568857,9.764603432127789,0.0,0.002181661564992912,0.0,0.5,-14.6875,-42.875
1772908536.245332,7.019471557750975e-05,0.8531505477766195,-9.193108408673199,0.07163136294905773,1.5962548077009788,9.763063532657338,0.0011843107635668483,-0.002132361835033834,-0.002181661564992912,-2.232452865372153,15.417767687116434,-42.5
1772908536.590951,7.019471557750975e-05,0.8531505477766195,-9.193108408673199,0.0679342706153537,1.5951723719776667,9.761356763195522,0.0010898068867269033,4.725193841997253e-05,-0.001090830782496456,-2.2135015088552175,14.980678341460232,-44.0625
1772908536.8782518,7.019471557750975e-05,0.8531505477766195,-9.193108408673199,0.07086261964606907,1.591523185274286,9.768156469140719,9.450387683994507e-05,-0.0021796137734538066,-0.002181661564992912,-2.9193075514033295,15.387986984018394,-43.6875
1772908536.912682,7.019471557750975e-05,0.8531505477766195,-9.193108408673199,0.07086261964606907,1.591523185274286,9.768156469140719,9.450387683994507e-05,-0.0021796137734538066,-0.002181661564992912,-2.9193075514033295,15.387986984018394,-43.6875
1772908536.9545896,7.019471557750975e-05,0.8531505477766195,-9.193108408673199,0.06770947953637857,1.5890561741268072,9.762082927392099,0.0011843107635668483,-0.002132361835033834,0.001090830782496456,-2.900356194886394,14.95089763836219,-44.0625
1772908536.98115,7.019471557750975e-05,0.8531505477766195,-9.193108408673199,0.06770947953637857,1.5890561741268072,9.762082927392099,0.0011843107635668483,-0.002132361835033834,0.001090830782496456,-2.900356194886394,14.95089763836219,-44.0625
1772908537.0536919,7.019471557750975e-05,0.8531505477766195,-9.193108408673199,0.06532129702401385,1.5940983494798477,9.758041053204298,0.0011370588251468758,-0.0010425549483069308,-0.002181661564992912,-2.900356194886394,14.95089763836219,-44.0625
1772908537.0789635,7.019471557750975e-05,0.8531505477766195,-9.193108408673199,0.06532129702401385,1.5940983494798477,9.758041053204298,0.0011370588251468758,-0.0010425549483069308,-0.002181661564992912,-2.900356194886394,14.95089763836219,-44.0625
1772908537.139029,7.019471557750975e-05,0.8531505477766195,-9.193108408673199,0.07041593195314927,1.5977436638447557,9.75869634279033,0.0011843107635668483,-0.002132361835033834,-0.001090830782496456,-2.1972574889835585,14.606030330897772,-44.5
1772908537.2004147,7.019471557750975e-05,0.8531505477766195,-9.193108408673199,0.07409615757993639,1.5934856361204046,9.75913243068977,-0.0009953030098869583,-0.0022268657118737793,-0.001090830782496456,-2.1972574889835585,14.606030330897772,-44.5
1772908537.2620192,7.019471557750975e-05,0.8531505477766195,-9.193108408673199,0.07654530662374923,1.5906519662351355,9.759422642315426,-0.0010898068867269033,-4.725193841997253e-05,0.0,-1.181779515359622,15.713557750461108,-42.875
1772908537.3395357,7.019471557750975e-05,0.8531505477766195,-9.193108408673199,0.07654530662374923,1.5906519662351355,9.759422642315426,-0.0010898068867269033,-4.725193841997253e-05,0.0,-1.181779515359622,15.713557750461108,-42.875
1772908537.3925276,7.019471557750975e-05,0.8531505477766195,-9.193108408673199,0.07483321609693552,1.5886212890845313,9.762960886617744,-0.0010425549483069308,-0.0011370588251468758,-0.002181661564992912,-1.181779515359622,15.713557750461108,-42.875
1772908537.445011,7.019471557750975e-05,0.8531505477766195,-9.193108408673199,0.07035186711996162,1.58712499462883,9.765315548676158,0.0011843107635668483,-0.002132361835033834,0.0,-2.232452865372153,15.417767687116434,-42.875
1772908537.4835262,7.019471557750975e-05,0.8531505477766195,-9.193108408673199,0.07071155129241735,1.5862741288793893,9.763537438265415,0.0010425549483069308,0.0011370588251468758,-0.001090830782496456,-2.232452865372153,15.417767687116434,-42.875
1772908537.497364,7.019471557750975e-05,0.8531505477766195,-9.193108408673199,0.07095091709125115,1.5857078872279298,9.759009013942539,-0.0010425549483069308,-0.0011370588251468758,0.002181661564992912,-2.884112175014735,14.57624962779973,-42.875
1772908537.5153344,7.019471557750975e-05,0.8531505477766195,-9.193108408673199,0.07095091709125115,1.5857078872279298,9.759009013942539,-0.0010425549483069308,-0.0011370588251468758,0.002181661564992912,-2.884112175014735,14.57624962779973,-42.875
1772908537.5337052,7.019471557750975e-05,0.8531505477766195,-9.193108408673199,0.07096531086035958,1.5886730315909008,9.7593405098488,9.450387683994507e-05,-0.0021796137734538066,-0.001090830782496456,-2.884112175014735,14.57624962779973,-42.875
1772908537.5552666,7.019471557750975e-05,0.8531505477766195,-9.193108408673199,0.07096531086035958,1.5886730315909008,9.7593405098488,9.450387683994507e-05,-0.0021796137734538066,-0.001090830782496456,-2.884112175014735,14.57624962779973,-42.875
1772908537.5819101,7.019471557750975e-05,0.8531505477766195,-9.193108408673199,0.0709748897529123,1.5906463020416253,9.759561116671364,0.0011370588251468758,-0.0010425549483069308,0.001090830782496456,-2.9193075514033295,15.387986984018394,-42.875
1772908537.5997057,7.019471557750975e-05,0.8531505477766195,-9.193108408673199,0.0709748897529123,1.5906463020416253,9.759561116671364,0.0011370588251468758,-0.0010425549483069308,0.001090830782496456,-2.9193075514033295,15.387986984018394,-42.875
1772908537.628766,7.019471557750975e-05,0.8531505477766195,-9.193108408673199,0.07098126439890289,1.5919594914837072,9.75970792804744,4.725193841997253e-05,-0.0010898068867269033,0.001090830782496456,-2.9193075514033295,15.387986984018394,-42.875
1772908537.645961,7.019471557750975e-05,0.8531505477766195,-9.193108408673199,0.07098550665460016,1.5928334043881254,9.75980562937823,-0.0010425549483069308,-0.0011370588251468758,-0.002181661564992912,-2.6343468346397616,14.587078974380836,-43.25
1772908537.6695745,7.019471557750975e-05,0.8531505477766195,-9.193108408673199,0.0709883298283776,1.593414983663769,9.763215760229793,0.0010425549483069308,0.0011370588251468758,-0.002181661564992912,-2.6343468346397616,14.587078974380836,-43.25
1772908537.689657,7.019471557750975e-05,0.8531505477766195,-9.193108408673199,0.0709883298283776,1.593414983663769,9.763215760229793,0.0010425549483069308,0.0011370588251468758,-0.002181661564992912,-2.6343468346397616,14.587078974380836,-43.25
1772908537.7136018,7.019471557750975e-05,0.8531505477766195,-9.193108408673199,0.06764823676230584,1.593657116678919,9.76548516421785,-0.0021796137734538066,-9.450387683994507e-05,0.0,-2.6343468346397616,14.587078974380836,-43.25
1772908537.7354527,7.019471557750975e-05,0.8531505477766195,-9.193108408673199,0.06528054064199505,1.5971602253523824,9.766995427221,-0.0011843107635668483,0.002132361835033834,0.001090830782496456,-2.900356194886394,14.95089763836219,-42.875
1772908537.7518651,7.019471557750975e-05,0.8531505477766195,-9.193108408673199,0.06528054064199505,1.5971602253523824,9.766995427221,-0.0011843107635668483,0.002132361835033834,0.001090830782496456,-2.900356194886394,14.95089763836219,-42.875
1772908537.7715447,7.019471557750975e-05,0.8531505477766195,-9.193108408673199,0.0638497668189512,1.5961495331856006,9.768000490378853,-0.0011843107635668483,0.002132361835033834,-0.001090830782496456,-2.900356194886394,14.95089763836219,-42.875
1772908537.7905157,7.019471557750975e-05,0.8531505477766195,-9.193108408673199,0.06943664503974953,1.599108703687711,9.765324236975793,-4.725193841997253e-05,0.0010898068867269033,-0.001090830782496456,-2.900356194886394,14.95089763836219,-42.875
1772908537.816015,7.019471557750975e-05,0.8531505477766195,-9.193108408673199,0.06943664503974953,1.599108703687711,9.765324236975793,-4.725193841997253e-05,0.0010898068867269033,-0.001090830782496456,-2.900356194886394,14.95089763836219,-42.875
1772908537.8434293,7.019471557750975e-05,0.8531505477766195,-9.193108408673199,0.07329955158229613,1.597736026744081,9.760198108524447,-0.0009953030098869583,-0.0022268657118737793,-0.001090830782496456,-2.9193075514033295,15.387986984018394,-42.875
1772908537.8719845,7.019471557750975e-05,0.8531505477766195,-9.193108408673199,0.07252830087818367,1.5966776240757774,9.756786727302684,-0.0011370588251468758,0.0010425549483069308,0.001090830782496456,-2.9193075514033295,15.387986984018394,-42.875
1772908537.8874717,7.019471557750975e-05,0.8531505477766195,-9.193108408673199,0.06867307029334797,1.5958283674270295,9.757861602914543,-0.0011370588251468758,0.0010425549483069308,0.002181661564992912,-2.9193075514033295,15.387986984018394,-42.875
1772908537.909213,7.019471557750975e-05,0.8531505477766195,-9.193108408673199,0.06867307029334797,1.5958283674270295,9.757861602914543,-0.0011370588251468758,0.0010425549483069308,0.002181661564992912,-2.9193075514033295,15.387986984018394,-42.875
1772908537.9448586,7.019471557750975e-05,0.8531505477766195,-9.193108408673199,0.06944942926157098,1.5954080981102303,9.758576920627089,-0.0011843107635668483,0.002132361835033834,0.002181661564992912,-1.9202461899034362,15.431304370342817,-42.875
1772908537.963148,7.019471557750975e-05,0.8531505477766195,-9.193108408673199,0.06967628449017685,1.6018123572879839,9.755707844866846,-0.0001417558152599176,0.0032694206601807103,0.0,-1.9202461899034362,15.431304370342817,-42.875
1772908537.9780142,7.019471557750975e-05,0.8531505477766195,-9.193108408673199,0.06967628449017685,1.6018123572879839,9.755707844866846,-0.0001417558152599176,0.0032694206601807103,0.0,-1.9202461899034362,15.431304370342817,-42.875
1772908538.000612,7.019471557750975e-05,0.8531505477766195,-9.193108408673199,0.07011705710292374,1.5993903765171489,9.75379850699808,-0.0022741176502937516,0.0020851098966138616,0.002181661564992912,-1.9202461899034362,15.431304370342817,-42.875
1772908538.0335886,7.019471557750975e-05,0.8531505477766195,-9.193108408673199,0.07026548485682976,1.6011205472261398,9.75252786397512,-0.0022741176502937516,0.0020851098966138616,0.0,-1.9202461899034362,15.431304370342817,-42.875
1772908538.054342,7.019471557750975e-05,0.8531505477766195,-9.193108408673199,0.0705091633651319,1.5989299846490161,9.755027376944671,-0.0009953030098869583,-0.0022268657118737793,0.0,-1.9202461899034362,15.431304370342817,-42.875
1772908538.0810142,7.019471557750975e-05,0.8531505477766195,-9.193108408673199,0.07052642719421538,1.6008141615808116,9.756690774904518,-0.0010425549483069308,-0.0011370588251468758,0.0,-1.9202461899034362,15.431304370342817,-42.875
1772908538.111983,7.019471557750975e-05,0.8531505477766195,-9.193108408673199,0.0706828175757451,1.5987260884246022,9.757797747665423,-0.0010898068867269033,-4.725193841997253e-05,0.002181661564992912,-1.8850508135148418,14.619567014124154,-42.875
1772908538.1293275,7.019471557750975e-05,0.8531505477766195,-9.193108408673199,0.0706828175757451,1.5987260884246022,9.757797747665423,-0.0010898068867269033,-4.725193841997253e-05,0.002181661564992912,-1.8850508135148418,14.619567014124154,-42.875
1772908538.164402,7.019471557750975e-05,0.8531505477766195,-9.193108408673199,0.07085615507760055,1.5964117428679998,9.760131833896757,0.0010898068867269033,4.725193841997253e-05,-0.002181661564992912,-1.8850508135148418,14.619567014124154,-42.875
1772908538.1790047,7.019471557750975e-05,0.8531505477766195,-9.193108408673199,0.07085615507760055,1.5964117428679998,9.760131833896757,0.0010898068867269033,4.725193841997253e-05,-0.002181661564992912,-1.8850508135148418,14.619567014124154,-42.875
1772908538.1953487,7.019471557750975e-05,0.8531505477766195,-9.193108408673199,0.07090224779883614,1.5957963279494654,9.76008773398561,0.0011370588251468758,-0.0010425549483069308,0.0,-2.2135015088552175,14.980678341460232,-43.6875
1772908538.233639,7.019471557750975e-05,0.8531505477766195,-9.193108408673199,0.070932921989929,1.5953867761958158,9.756713274280052,0.0,0.0,0.0,-2.2135015088552175,14.980678341460232,-43.6875
1772908538.2633896,7.019471557750975e-05,0.8531505477766195,-9.193108408673199,0.07095333532144814,1.595114224078755,9.754467609041187,9.450387683994507e-05,-0.0021796137734538066,-0.002181661564992912,-1.5104028029523817,14.635811033995813,-43.6875
1772908538.2852936,7.019471557750975e-05,0.8531505477766195,-9.193108408673199,0.06776984980498282,1.5914459703366495,9.752973143910447,-0.0010425549483069308,-0.0011370588251468758,-0.002181661564992912,-1.5104028029523817,14.635811033995813,-43.6875
1772908538.306864,7.019471557750975e-05,0.8531505477766195,-9.193108408673199,0.06899324761232224,1.589149689944482,9.755323705767529,-4.725193841997253e-05,0.0010898068867269033,0.0,-1.5104028029523817,14.635811033995813,-43.6875
1772908538.3211436,7.019471557750975e-05,0.8531505477766195,-9.193108408673199,0.06899324761232224,1.589149689944482,9.755323705767529,-4.725193841997253e-05,0.0010898068867269033,0.0,-1.5104028029523817,14.635811033995813,-43.6875
1772908538.3343782,7.019471557750975e-05,0.8531505477766195,-9.193108408673199,0.06632053183404964,1.5908186113551865,9.760233090133239,0.0010425549483069308,0.0011370588251468758,0.0,-2.178306132466623,14.168940985241568,-43.6875
1772908538.3464239,7.019471557750975e-05,0.8531505477766195,-9.193108408673199,0.06632053183404964,1.5908186113551865,9.760233090133239,0.0010425549483069308,0.0011370588251468758,0.0,-2.178306132466623,14.168940985241568,-43.6875
1772908538.3623607,7.019471557750975e-05,0.8531505477766195,-9.193108408673199,0.06788384119648443,1.5920741614070608,9.760155118879883,0.0001417558152599176,-0.0032694206601807103,-0.002181661564992912,-2.178306132466623,14.168940985241568,-43.6875
1772908538.3887277,7.019471557750975e-05,0.8531505477766195,-9.193108408673199,0.06892420611387497,1.5929097159411703,9.760103229881771,-0.0010425549483069308,-0.0011370588251468758,0.0,-2.178306132466623,14.168940985241568,-43.6875
1772908538.4214447,7.019471557750975e-05,0.8531505477766195,-9.193108408673199,0.06961655734476077,1.5934657681498643,9.760068698333166,0.0010425549483069308,0.0011370588251468758,0.0,-1.9012948333865007,14.994215024686614,-44.0625
1772908538.441593,7.019471557750975e-05,0.8531505477766195,-9.193108408673199,0.06961655734476077,1.5934657681498643,9.760068698333166,0.0010425549483069308,0.0011370588251468758,0.0,-1.9012948333865007,14.994215024686614,-44.0625
1772908538.4744756,7.019471557750975e-05,0.8531505477766195,-9.193108408673199,0.06993240785872099,1.5971777865399237,9.76004571797331,0.0009953030098869583,0.0022268657118737793,-0.001090830782496456,-1.9012948333865007,14.994215024686614,-44.0625
1772908538.4990473,7.019471557750975e-05,0.8531505477766195,-9.193108408673199,0.07014260284748003,1.599648093312546,9.760030424800535,0.0009953030098869583,0.0022268657118737793,0.0,-0.7446901697034187,15.732509106978043,-42.875
1772908538.534432,7.019471557750975e-05,0.8531505477766195,-9.193108408673199,0.06723031640003217,1.5944632096650997,9.760020247364888,9.450387683994507e-05,-0.0021796137734538066,-0.002181661564992912,-0.7446901697034187,15.732509106978043,-42.875
1772908538.5580864,7.019471557750975e-05,0.8531505477766195,-9.193108408673199,0.06723031640003217,1.5944632096650997,9.760020247364888,9.450387683994507e-05,-0.0021796137734538066,-0.002181661564992912,-0.7446901697034187,15.732509106978043,-42.875
1772908538.5773084,7.019471557750975e-05,0.8531505477766195,-9.193108408673199,0.06863419415831064,1.5911576290127938,9.760013474395155,0.0022741176502937516,-0.0020851098966138616,0.0,-2.2432822119532587,15.667533027491407,-42.5
1772908538.6072001,7.019471557750975e-05,0.8531505477766195,-9.193108408673199,0.06863419415831064,1.5911576290127938,9.760013474395155,0.0022741176502937516,-0.0020851098966138616,0.0,-2.2432822119532587,15.667533027491407,-42.5
1772908538.6294866,7.019471557750975e-05,0.8531505477766195,-9.193108408673199,0.06956845912410281,1.5889578020144395,9.760008967059457,-0.0010898068867269033,-4.725193841997253e-05,0.001090830782496456,-2.2432822119532587,15.667533027491407,-42.5
1772908538.6509225,7.019471557750975e-05,0.8531505477766195,-9.193108408673199,0.06956845912410281,1.5889578020144395,9.760008967059457,-0.0010898068867269033,-4.725193841997253e-05,0.001090830782496456,-2.2432822119532587,15.667533027491407,-42.5
1772908538.670229,7.019471557750975e-05,0.8531505477766195,-9.193108408673199,0.07036263315277765,1.59208560929378,9.760003971289882,0.0011843107635668483,-0.002132361835033834,-0.001090830782496456,-1.1168034358729864,14.214965708211269,-43.25
1772908538.7022443,7.019471557750975e-05,0.8531505477766195,-9.193108408673199,0.07057381447086764,1.5929173343819005,9.760002642849054,-0.0010425549483069308,-0.0011370588251468758,0.0,-1.1168034358729864,14.214965708211269,-43.25
1772908538.7397666,7.019471557750975e-05,0.8531505477766195,-9.193108408673199,0.07071435327900664,1.5934708381370668,9.760001758786522,4.725193841997253e-05,-0.0010898068867269033,0.0,-1.8850508135148418,14.619567014124154,-42.0625
1772908538.7650461,7.019471557750975e-05,0.8531505477766195,-9.193108408673199,0.07071435327900664,1.5934708381370668,9.760001758786522,4.725193841997253e-05,-0.0010898068867269033,0.0,-1.8850508135148418,14.619567014124154,-42.0625
1772908538.7944036,7.019471557750975e-05,0.8531505477766195,-9.193108408673199,0.07080788028590178,1.5938391887030878,9.760001170452783,0.0022268657118737793,-0.0009953030098869583,0.0,-1.8850508135148418,14.619567014124154,-42.0625
1772908538.8346188,7.019471557750975e-05,0.8531505477766195,-9.193108408673199,0.07087012146422537,1.5940843218900294,9.756655667215933,0.0,0.0,0.001090830782496456,-1.9202461899034362,15.431304370342817,-43.6875
1772908538.857425,7.019471557750975e-05,0.8531505477766195,-9.193108408673199,0.07091154227312021,1.5942474552876218,9.757774383890848,0.0011370588251468758,-0.0010425549483069308,0.0,-1.9202461899034362,15.431304370342817,-43.6875
1772908538.892356,7.019471557750975e-05,0.8531505477766195,-9.193108408673199,0.06759713550205522,1.594211117245276,9.75851887734112,0.0010898068867269033,4.725193841997253e-05,0.0,-1.5104028029523817,14.635811033995813,-42.875
1772908538.916533,7.019471557750975e-05,0.8531505477766195,-9.193108408673199,0.06759713550205522,1.594211117245276,9.75851887734112,0.0010898068867269033,4.725193841997253e-05,0.0,-1.5104028029523817,14.635811033995813,-42.875
1772908538.9377732,7.019471557750975e-05,0.8531505477766195,-9.193108408673199,0.0687334066769448,1.5943318361801417,9.75901432941574,-0.0009953030098869583,-0.0022268657118737793,0.0,-1.5104028029523817,14.635811033995813,-42.875
1772908538.9716153,7.019471557750975e-05,0.8531505477766195,-9.193108408673199,0.06614761059416935,1.5942672717866515,9.759344047236837,0.0011843107635668483,-0.002132361835033834,0.0,-1.9202461899034362,15.431304370342817,-43.6875
1772908538.9874754,7.019471557750975e-05,0.8531505477766195,-9.193108408673199,0.06776876404300092,1.5943692064001398,9.759563470763588,0.0022268657118737793,-0.0009953030098869583,-0.001090830782496456,-1.9202461899034362,15.431304370342817,-43.6875
1772908539.0198255,7.019471557750975e-05,0.8531505477766195,-9.193108408673199,0.06536075020091968,1.5976341131072913,9.759709494669519,-0.0001417558152599176,0.0032694206601807103,0.001090830782496456,-1.9202461899034362,15.431304370342817,-43.6875
1772908539.044911,7.019471557750975e-05,0.8531505477766195,-9.193108408673199,0.06536075020091968,1.5976341131072913,9.759709494669519,-0.0001417558152599176,0.0032694206601807103,0.001090830782496456,-1.9202461899034362,15.431304370342817,-43.6875
1772908539.0639832,7.019471557750975e-05,0.8531505477766195,-9.193108408673199,0.07044218760165921,1.6000966750417516,9.756461560240403,0.0011370588251468758,-0.0010425549483069308,0.0,-1.181779515359622,15.713557750461108,-43.25
1772908539.088764,7.019471557750975e-05,0.8531505477766195,-9.193108408673199,0.07382382742847632,1.601735482500516,9.75764520786695,0.0011370588251468758,-0.0010425549483069308,-0.001090830782496456,-1.181779515359622,15.713557750461108,-43.25
1772908539.107837,7.019471557750975e-05,0.8531505477766195,-9.193108408673199,0.07382382742847632,1.601735482500516,9.75764520786695,0.0011370588251468758,-0.0010425549483069308,-0.001090830782496456,-1.181779515359622,15.713557750461108,-43.25
1772908539.1345892,7.019471557750975e-05,0.8531505477766195,-9.193108408673199,0.07607427095783106,1.6028260905576444,9.755087800432888,0.0,0.0,-0.002181661564992912,-3.337445540542597,14.931946281845255,-42.5
1772908539.1471035,7.019471557750975e-05,0.8531505477766195,-9.193108408673199,0.07422994413083155,1.603406976540649,9.756730986060951,0.0001417558152599176,-0.0032694206601807103,0.001090830782496456,-3.337445540542597,14.931946281845255,-42.5
1772908539.160753,7.019471557750975e-05,0.8531505477766195,-9.193108408673199,0.0696605933732602,1.6036486481772927,9.75782450774084,0.0011843107635668483,-0.002132361835033834,-0.001090830782496456,-3.337445540542597,14.931946281845255,-42.5
1772908539.1763086,7.019471557750975e-05,0.8531505477766195,-9.193108408673199,0.0696605933732602,1.6036486481772927,9.75782450774084,0.0011843107635668483,-0.002132361835033834,-0.001090830782496456,-3.337445540542597,14.931946281845255,-42.5
1772908539.2088583,7.019471557750975e-05,0.8531505477766195,-9.193108408673199,0.07025151633602127,1.5972704357345866,9.76189734591069,0.0010425549483069308,0.0011370588251468758,0.0,-0.679714090216783,14.233917064728203,-42.875
1772908539.2355223,7.019471557750975e-05,0.8531505477766195,-9.193108408673199,0.07049986747057244,1.5963677784599513,9.76460777421614,9.450387683994507e-05,-0.0021796137734538066,-0.001090830782496456,-0.679714090216783,14.233917064728203,-42.875
1772908539.2547028,7.019471557750975e-05,0.8531505477766195,-9.193108408673199,0.07049986747057244,1.5963677784599513,9.76460777421614,9.450387683994507e-05,-0.0021796137734538066,-0.001090830782496456,-0.679714090216783,14.233917064728203,-42.875
1772908539.2954593,7.019471557750975e-05,0.8531505477766195,-9.193108408673199,0.0708100438724766,1.5924250982703398,9.76641153397595,-9.450387683994507e-05,0.0021796137734538066,0.0,-2.2135015088552175,14.980678341460232,-42.0625
1772908539.321408,7.019471557750975e-05,0.8531505477766195,-9.193108408673199,0.07087156130692207,1.5931432605034608,9.767611915946786,0.0009480510714669856,0.0033166725986006826,0.0,-2.2135015088552175,14.980678341460232,-42.0625
1772908539.3513882,7.019471557750975e-05,0.8531505477766195,-9.193108408673199,0.07076759897622645,1.5969631613038888,9.761720533324594,0.0010898068867269033,4.725193841997253e-05,-0.002181661564992912,-1.931075536484542,15.68106971071779,-42.875
1772908539.3864162,7.019471557750975e-05,0.8531505477766195,-9.193108408673199,0.07069841320648385,1.599505262615486,9.754454772293261,-0.0011370588251468758,0.0010425549483069308,-0.001090830782496456,-1.931075536484542,15.68106971071779,-42.875
1772908539.4104667,7.019471557750975e-05,0.8531505477766195,-9.193108408673199,0.07069841320648385,1.599505262615486,9.754454772293261,-0.0011370588251468758,0.0010425549483069308,-0.001090830782496456,-1.931075536484542,15.68106971071779,-42.875
1772908539.4360278,7.019471557750975e-05,0.8531505477766195,-9.193108408673199,0.06702059600064347,1.6077360448584646,9.74961948949078,4.725193841997253e-05,-0.0010898068867269033,0.001090830782496456,-1.931075536484542,15.68106971071779,-42.875
1772908539.464242,7.019471557750975e-05,0.8531505477766195,-9.193108408673199,0.06500775422243976,1.6031876229272535,9.746401662799375,0.0010425549483069308,0.0011370588251468758,0.0,-1.545598179340976,15.447548390214475,-42.0625
1772908539.4820206,7.019471557750975e-05,0.8531505477766195,-9.193108408673199,0.06366823050396113,1.6001606989412345,9.744260235081725,-0.0001417558152599176,0.0032694206601807103,0.001090830782496456,-1.545598179340976,15.447548390214475,-42.0625
1772908539.5234718,7.019471557750975e-05,0.8531505477766195,-9.193108408673199,0.0661187642894577,1.5982912163376197,9.739490027149625,0.0011370588251468758,-0.0010425549483069308,-0.003272492347489368,-1.545598179340976,15.447548390214475,-42.0625
1772908539.5392425,7.019471557750975e-05,0.8531505477766195,-9.193108408673199,0.0661187642894577,1.5982912163376197,9.739490027149625,0.0011370588251468758,-0.0010425549483069308,-0.003272492347489368,-1.545598179340976,15.447548390214475,-42.0625
1772908539.5685172,7.019471557750975e-05,0.8531505477766195,-9.193108408673199,0.07094663751000908,1.600533969901211,9.732970395350208,9.450387683994507e-05,-0.0021796137734538066,0.0,-2.232452865372153,15.417767687116434,-43.25
1772908539.588106,7.019471557750975e-05,0.8531505477766195,-9.193108408673199,0.07401463171128417,1.6053684692012662,9.728631653216754,-4.725193841997253e-05,0.0010898068867269033,-0.001090830782496456,-2.232452865372153,15.417767687116434,-43.25
1772908539.6193376,7.019471557750975e-05,0.8531505477766195,-9.193108408673199,0.07401463171128417,1.6053684692012662,9.728631653216754,-4.725193841997253e-05,0.0010898068867269033,-0.001090830782496456,-2.232452865372153,15.417767687116434,-43.25
1772908539.646786,7.019471557750975e-05,0.8531505477766195,-9.193108408673199,0.07285927721993249,1.6050989011277488,9.742469827330462,-0.00018900775367989013,0.004359227546907613,-0.001090830782496456,-1.8660994569979064,14.18247766846795,-42.875
1772908539.6835115,7.019471557750975e-05,0.8531505477766195,-9.193108408673199,0.07223530320821756,1.6015775347294121,9.751678977620601,0.0001417558152599176,-0.0032694206601807103,0.0,-1.8660994569979064,14.18247766846795,-42.875
1772908539.701394,7.019471557750975e-05,0.8531505477766195,-9.193108408673199,0.07182005547366768,1.5992341047275591,9.75780756426574,0.0009480510714669856,0.0033166725986006826,0.001090830782496456,-1.9012948333865007,14.994215024686614,-42.5
1772908539.7387154,7.019471557750975e-05,0.8531505477766195,-9.193108408673199,0.07182005547366768,1.5992341047275591,9.75780756426574,0.0009480510714669856,0.0033166725986006826,0.001090830782496456,-1.9012948333865007,14.994215024686614,-42.5
1772908539.7773845,7.019471557750975e-05,0.8531505477766195,-9.193108408673199,0.07503058609775391,1.5944775078785949,9.761886070217281,0.0011370588251468758,-0.0010425549483069308,0.0,-1.9012948333865007,14.994215024686614,-42.5
1772908539.8259215,7.019471557750975e-05,0.8531505477766195,-9.193108408673199,0.0728301458912229,1.5934122242179038,9.759716316834288,4.725193841997253e-05,-0.0010898068867269033,-0.002181661564992912,-2.6343468346397616,14.587078974380836,-43.25
1772908539.8624418,7.019471557750975e-05,0.8531505477766195,-9.193108408673199,0.07207101513825531,1.597142153651329,9.756466100314848,0.0,0.0,0.0,-1.1168034358729864,14.214965708211269,-43.6875
1772908539.885414,7.019471557750975e-05,0.8531505477766195,-9.193108408673199,0.07207101513825531,1.597142153651329,9.756466100314848,0.0,0.0,0.0,-1.1168034358729864,14.214965708211269,-43.6875
1772908539.9291623,7.019471557750975e-05,0.8531505477766195,-9.193108408673199,0.0715658221022015,1.5996243800232317,9.754303117528458,-0.0020851098966138616,-0.0022741176502937516,-0.001090830782496456,-1.1168034358729864,14.214965708211269,-43.6875
1772908539.9659898,7.019471557750975e-05,0.8531505477766195,-9.193108408673199,0.0712296217800837,1.6012762739454474,9.756208788353536,-4.725193841997253e-05,0.0010898068867269033,0.0,-2.2135015088552175,14.980678341460232,-42.0625
1772908539.9944475,7.019471557750975e-05,0.8531505477766195,-9.193108408673199,0.07115078571744225,1.599033619041134,9.754131879292569,0.0021796137734538066,9.450387683994507e-05,0.0,-2.2135015088552175,14.980678341460232,-42.0625
1772908540.026092,7.019471557750975e-05,0.8531505477766195,-9.193108408673199,0.0710983211984109,1.5975411572544105,9.752749719513089,0.001231562701986821,-0.0032221687217607376,-0.001090830782496456,-2.2135015088552175,14.980678341460232,-42.0625
1772908540.0655456,7.019471557750975e-05,0.8531505477766195,-9.193108408673199,0.0712083081431869,1.5932059687505526,9.75182990761958,-0.0010898068867269033,-4.725193841997253e-05,0.001090830782496456,-2.6505908545114205,14.961726984943295,-43.25
1772908540.0903256,7.019471557750975e-05,0.8531505477766195,-9.193108408673199,0.07128150322630067,1.590320949228464,9.754562894786742,0.0,0.0,0.0,-2.6505908545114205,14.961726984943295,-43.25
1772908540.155598,7.019471557750975e-05,0.8531505477766195,-9.193108408673199,0.07133021373647024,1.5884010009642935,9.756381667217022,0.0010898068867269033,4.725193841997253e-05,0.0,-1.8660994569979064,14.18247766846795,-43.6875
1772908540.18503,7.019471557750975e-05,0.8531505477766195,-9.193108408673199,0.07121772854073172,1.5904652686983993,9.760937151659673,0.0009953030098869583,0.0022268657118737793,0.0,-1.8660994569979064,14.18247766846795,-43.6875
1772908540.2213304,7.019471557750975e-05,0.8531505477766195,-9.193108408673199,0.07114287089950971,1.5918390158160654,9.753933440546204,9.450387683994507e-05,-0.0021796137734538066,-0.002181661564992912,-1.4914514464354462,14.198721688339608,-43.6875
1772908540.2509704,7.019471557750975e-05,0.8531505477766195,-9.193108408673199,0.0712379554716154,1.5894112573204273,9.759307884158728,-4.725193841997253e-05,0.0010898068867269033,0.001090830782496456,-1.4914514464354462,14.198721688339608,-43.6875
1772908540.2711833,7.019471557750975e-05,0.8531505477766195,-9.193108408673199,0.0712379554716154,1.5894112573204273,9.759307884158728,-4.725193841997253e-05,0.0010898068867269033,0.001090830782496456,-1.4914514464354462,14.198721688339608,-43.6875
1772908540.3212152,7.019471557750975e-05,0.8531505477766195,-9.193108408673199,0.07119844231224545,1.590062388547234,9.76303859063981,0.0001417558152599176,-0.0032694206601807103,0.0,-2.1972574889835585,14.606030330897772,-43.25
1772908540.3368297,7.019471557750975e-05,0.8531505477766195,-9.193108408673199,0.07119844231224545,1.590062388547234,9.76303859063981,0.0001417558152599176,-0.0032694206601807103,0.0,-2.1972574889835585,14.606030330897772,-43.25
1772908540.3655176,7.019471557750975e-05,0.8531505477766195,-9.193108408673199,0.0711300361298934,1.591570903575931,9.765367259834832,0.00018900775367989013,-0.004359227546907613,-0.001090830782496456,-2.1972574889835585,14.606030330897772,-43.25
1772908540.3801622,4.782366559554901,-1.2281779645580426,9.086622722808135,0.06774254072300147,1.5924299019801873,9.766916963171179,0.0010898068867269033,4.725193841997253e-05,0.0,-2.6343468346397616,14.587078974380836,-42.1875
1772908540.4283733,7.019471557750975e-05,0.8531505477766195,-9.193108408673199,0.06548820037051804,1.5930015558225792,9.764603161722878,0.0022741176502937516,-0.0020851098966138616,0.001090830782496456,-2.6343468346397616,14.587078974380836,-42.1875
1772908540.4620626,7.019471557750975e-05,0.8531505477766195,-9.193108408673199,0.06548820037051804,1.5930015558225792,9.764603161722878,0.0022741176502937516,-0.0020851098966138616,0.001090830782496456,-2.6343468346397616,14.587078974380836,-42.1875
1772908540.4774961,7.019471557750975e-05,0.8531505477766195,-9.193108408673199,0.06732993390525582,1.5935268865650234,9.76306335270589,-0.0009953030098869583,-0.0022268657118737793,-0.001090830782496456,-1.8850508135148418,14.619567014124154,-43.6875
1772908540.5012739,7.019471557750975e-05,0.8531505477766195,-9.193108408673199,0.06855558699911221,1.593876488305791,9.762038627005879,-0.0010898068867269033,-4.725193841997253e-05,-0.001090830782496456,-1.8850508135148418,14.619567014124154,-43.6875
1772908540.574119,7.019471557750975e-05,0.8531505477766195,-9.193108408673199,0.06855558699911221,1.593876488305791,9.762038627005879,-0.0010898068867269033,-4.725193841997253e-05,-0.001090830782496456,-1.8850508135148418,14.619567014124154,-43.6875
1772908540.6037884,7.019471557750975e-05,0.8531505477766195,-9.193108408673199,0.06657208516694249,1.594119072867289,9.76535512666149,0.0,0.0,-0.001090830782496456,-2.6505908545114205,14.961726984943295,-43.25
1772908540.6559975,7.019471557750975e-05,0.8531505477766195,-9.193108408673199,0.06657208516694249,1.594119072867289,9.76535512666149,0.0,0.0,-0.001090830782496456,-2.6505908545114205,14.961726984943295,-43.25
1772908540.6942444,7.019471557750975e-05,0.8531505477766195,-9.193108408673199,0.06470927527280605,1.59412568017867,9.763563776972537,4.725193841997253e-05,-0.0010898068867269033,-0.001090830782496456,-2.1972574889835585,14.606030330897772,-42.875
1772908540.7374477,7.019471557750975e-05,0.8531505477766195,-9.193108408673199,0.06346959609720823,1.5941300772705855,9.762371653765227,0.0009480510714669856,0.0033166725986006826,0.002181661564992912,-2.1972574889835585,14.606030330897772,-42.875
1772908540.7922146,7.019471557750975e-05,0.8531505477766195,-9.193108408673199,0.06264460345397166,1.5941330034861367,9.768268532502288,0.0010898068867269033,4.725193841997253e-05,-0.001090830782496456,-2.1972574889835585,14.606030330897772,-42.5
1772908540.8221974,7.019471557750975e-05,0.8531505477766195,-9.193108408673199,0.06209558006566937,1.5941349508498979,9.772192839429351,0.0010425549483069308,0.0011370588251468758,-0.001090830782496456,-2.1972574889835585,14.606030330897772,-42.5
1772908540.841119,7.019471557750975e-05,0.8531505477766195,-9.193108408673199,0.06209558006566937,1.5941349508498979,9.772192839429351,0.0010425549483069308,0.0011370588251468758,-0.001090830782496456,-2.1972574889835585,14.606030330897772,-42.5
1772908540.8611665,7.019471557750975e-05,0.8531505477766195,-9.193108408673199,0.06158530963762298,1.5974782186554113,9.768114198437292,-9.450387683994507e-05,0.0021796137734538066,0.0,-1.931075536484542,15.68106971071779,-42.875
1772908540.883506,7.019471557750975e-05,0.8531505477766195,-9.193108408673199,0.06458770222453601,1.5998480275293563,9.765399908418482,-4.725193841997253e-05,0.0010898068867269033,0.0,-1.931075536484542,15.68106971071779,-42.875
1772908540.935067,7.019471557750975e-05,0.8531505477766195,-9.193108408673199,0.0668755639444525,1.5947411651490997,9.76693869043889,0.0010425549483069308,0.0011370588251468758,-0.001090830782496456,-1.8660994569979064,14.18247766846795,-42.875
1772908540.9652817,7.019471557750975e-05,0.8531505477766195,-9.193108408673199,0.0668755639444525,1.5947411651490997,9.76693869043889,0.0010425549483069308,0.0011370588251468758,-0.001090830782496456,-1.8660994569979064,14.18247766846795,-42.875
1772908540.9937427,7.019471557750975e-05,0.8531505477766195,-9.193108408673199,0.06839811036196694,1.5913426052824293,9.767962732684149,4.725193841997253e-05,-0.0010898068867269033,-0.002181661564992912,-1.8660994569979064,14.18247766846795,-42.875
1772908541.0316882,7.019471557750975e-05,0.8531505477766195,-9.193108408673199,0.06926644649874059,1.5924228735122454,9.765299109651748,-0.0010425549483069308,-0.0011370588251468758,-0.001090830782496456,-2.884112175014735,14.57624962779973,-42.875
1772908541.0651462,7.019471557750975e-05,0.8531505477766195,-9.193108408673199,0.06984431449781323,1.5931417799518013,9.763526498278305,-0.0010898068867269033,-4.725193841997253e-05,0.0,-2.884112175014735,14.57624962779973,-42.875
1772908541.0860317,7.019471557750975e-05,0.8531505477766195,-9.193108408673199,0.06984431449781323,1.5931417799518013,9.763526498278305,-0.0010898068867269033,-4.725193841997253e-05,0.0,-2.884112175014735,14.57624962779973,-42.875
1772908541.109631,7.019471557750975e-05,0.8531505477766195,-9.193108408673199,0.06688690733930383,1.5934753026604902,9.762346845210645,0.0011370588251468758,-0.0010425549483069308,0.0,-2.615395478122826,14.149989628724633,-43.375
1772908541.12878,7.019471557750975e-05,0.8531505477766195,-9.193108408673199,0.06491878591171843,1.5936972582974298,9.764906910979025,4.725193841997253e-05,-0.0010898068867269033,-0.001090830782496456,-2.615395478122826,14.149989628724633,-43.375
1772908541.1741998,7.019471557750975e-05,0.8531505477766195,-9.193108408673199,0.0636090230870172,1.5938449672944064,9.766610606150074,4.725193841997253e-05,-0.0010898068867269033,-0.001090830782496456,-1.9012948333865007,14.994215024686614,-43.25
1772908541.188562,7.019471557750975e-05,0.8531505477766195,-9.193108408673199,0.06607936241487174,1.594088167478001,9.764399284547565,-0.0001417558152599176,0.0032694206601807103,0.0,-1.9012948333865007,14.994215024686614,-43.25
1772908541.223865,7.019471557750975e-05,0.8531505477766195,-9.193108408673199,0.06607936241487174,1.594088167478001,9.764399284547565,-0.0001417558152599176,0.0032694206601807103,0.0,-1.9012948333865007,14.994215024686614,-43.25
1772908541.2456927,7.019471557750975e-05,0.8531505477766195,-9.193108408673199,0.06757844414593617,1.5975919863401427,9.762927674723176,-0.0011370588251468758,0.0010425549483069308,0.002181661564992912,-2.9193075514033295,15.387986984018394,-42.875
1772908541.2591863,7.019471557750975e-05,0.8531505477766195,-9.193108408673199,0.06757844414593617,1.5975919863401427,9.762927674723176,-0.0011370588251468758,0.0010425549483069308,0.002181661564992912,-2.9193075514033295,15.387986984018394,-42.875
1772908541.2794328,7.019471557750975e-05,0.8531505477766195,-9.193108408673199,0.06872096778824369,1.596581766795993,9.758603223116685,-4.725193841997253e-05,0.0010898068867269033,0.0,-2.9193075514033295,15.387986984018394,-42.875
1772908541.3103142,7.019471557750975e-05,0.8531505477766195,-9.193108408673199,0.06613933265269029,1.5957645754781289,9.759070460587173,4.725193841997253e-05,-0.0010898068867269033,-0.001090830782496456,-1.8660994569979064,14.18247766846795,-43.25
1772908541.3393922,7.019471557750975e-05,0.8531505477766195,-9.193108408673199,0.06442128330873352,1.5952207437847155,9.75603629019708,0.0011370588251468758,-0.0010425549483069308,0.0,-1.8660994569979064,14.18247766846795,-43.25
1772908541.3640451,7.019471557750975e-05,0.8531505477766195,-9.193108408673199,0.06442128330873352,1.5952207437847155,9.75603629019708,0.0011370588251468758,-0.0010425549483069308,0.0,-1.8660994569979064,14.18247766846795,-43.25
1772908541.3829505,7.019471557750975e-05,0.8531505477766195,-9.193108408673199,0.06008087030163957,1.5913719565149387,9.754017083696377,0.0010898068867269033,4.725193841997253e-05,-0.002181661564992912,-1.8660994569979064,14.18247766846795,-43.25
1772908541.4115646,7.019471557750975e-05,0.8531505477766195,-9.193108408673199,0.060389444291568166,1.5922975049334813,9.752673324326175,4.725193841997253e-05,-0.0010898068867269033,-0.001090830782496456,-2.232452865372153,15.417767687116434,-43.6875
1772908541.4342031,7.019471557750975e-05,0.8531505477766195,-9.193108408673199,0.06073969833099265,1.5895714752102845,9.7551241791834,-0.0011370588251468758,0.0010425549483069308,0.0,-2.232452865372153,15.417767687116434,-43.6875
1772908541.4511538,7.019471557750975e-05,0.8531505477766195,-9.193108408673199,0.06082788698551132,1.5910993047379278,9.756755195713039,-0.0011370588251468758,0.0010425549483069308,0.002181661564992912,-2.232452865372153,15.417767687116434,-43.6875
1772908541.4824502,7.019471557750975e-05,0.8531505477766195,-9.193108408673199,0.06082788698551132,1.5910993047379278,9.756755195713039,-0.0011370588251468758,0.0010425549483069308,0.002181661564992912,-2.232452865372153,15.417767687116434,-43.6875
1772908541.5163472,7.019471557750975e-05,0.8531505477766195,-9.193108408673199,0.0608865755499617,1.5921160582216005,9.757840618993866,0.001231562701986821,-0.0032221687217607376,0.0,-1.8660994569979064,14.18247766846795,-42.875
1772908541.5465446,7.019471557750975e-05,0.8531505477766195,-9.193108408673199,0.0609256321340092,1.592792696307104,9.758562956062285,0.0009953030098869583,0.0022268657118737793,0.001090830782496456,-1.8660994569979064,14.18247766846795,-42.875
1772908541.5646896,7.019471557750975e-05,0.8531505477766195,-9.193108408673199,0.06763556756776964,1.5935327943867126,9.759043663312283,-0.001231562701986821,0.0032221687217607376,0.001090830782496456,-1.4806220998543402,13.948956347964636,-42.0625
1772908541.59453,7.019471557750975e-05,0.8531505477766195,-9.193108408673199,0.06763556756776964,1.5935327943867126,9.759043663312283,-0.001231562701986821,0.0032221687217607376,0.001090830782496456,-1.4806220998543402,13.948956347964636,-42.0625
1772908541.6441672,7.019471557750975e-05,0.8531505477766195,-9.193108408673199,0.07531395168480709,1.5887870758158555,9.75957646202422,9.450387683994507e-05,-0.0021796137734538066,-0.003272492347489368,-2.178306132466623,14.168940985241568,-42.5
1772908541.6636937,7.019471557750975e-05,0.8531505477766195,-9.193108408673199,0.07531395168480709,1.5887870758158555,9.75957646202422,9.450387683994507e-05,-0.0021796137734538066,-0.003272492347489368,-2.178306132466623,14.168940985241568,-42.5
1772908541.677516,7.019471557750975e-05,0.8531505477766195,-9.193108408673199,0.07735573499688918,1.5875251268388157,9.756373028501029,-0.0010898068867269033,-4.725193841997253e-05,0.0,-2.178306132466623,14.168940985241568,-42.5
1772908541.6952133,7.019471557750975e-05,0.8531505477766195,-9.193108408673199,0.07522764563005775,1.589882384252049,9.764276514398,-4.725193841997253e-05,0.0010898068867269033,-0.001090830782496456,-2.178306132466623,14.168940985241568,-42.5
1772908541.7299387,7.019471557750975e-05,0.8531505477766195,-9.193108408673199,0.07046945407206355,1.5913062112321408,9.762845972560074,4.725193841997253e-05,-0.0010898068867269033,0.0,-2.615395478122826,14.149989628724633,-43.25
1772908541.7533264,7.019471557750975e-05,0.8531505477766195,-9.193108408673199,0.07046945407206355,1.5913062112321408,9.762845972560074,4.725193841997253e-05,-0.0010898068867269033,0.0,-2.615395478122826,14.149989628724633,-43.25
1772908541.780011,7.019471557750975e-05,0.8531505477766195,-9.193108408673199,0.06543697666253245,1.5873183133047073,9.761260411184365,-0.001231562701986821,0.0032221687217607376,0.001090830782496456,-2.615395478122826,14.149989628724633,-43.25
1772908541.8089988,7.019471557750975e-05,0.8531505477766195,-9.193108408673199,0.06543697666253245,1.5873183133047073,9.761260411184365,-0.001231562701986821,0.0032221687217607376,0.001090830782496456,-2.615395478122826,14.149989628724633,-43.25
1772908541.834566,7.019471557750975e-05,0.8531505477766195,-9.193108408673199,0.0640987747392383,1.58625787880255,9.76083878956348,0.0,0.0,-0.001090830782496456,-1.1059740892918803,13.965200367836294,-42.5
1772908541.852065,7.019471557750975e-05,0.8531505477766195,-9.193108408673199,0.06655018816466475,1.5856970729833186,9.757213093377283,0.0010898068867269033,4.725193841997253e-05,-0.001090830782496456,-1.1059740892918803,13.965200367836294,-42.5
1772908541.8743207,7.019471557750975e-05,0.8531505477766195,-9.193108408673199,0.06655018816466475,1.5856970729833186,9.757213093377283,0.0010898068867269033,4.725193841997253e-05,-0.001090830782496456,-1.1059740892918803,13.965200367836294,-42.5
1772908541.9011023,7.019471557750975e-05,0.8531505477766195,-9.193108408673199,0.06483960455852004,1.585178961479107,9.75480023306705,0.0010425549483069308,0.0011370588251468758,0.0,-1.1059740892918803,13.965200367836294,-42.5
1772908541.9312866,7.019471557750975e-05,0.8531505477766195,-9.193108408673199,0.06704320213378542,1.5849790655568632,9.753194501484005,0.0011843107635668483,-0.002132361835033834,0.0,-1.1357547923899218,14.652055053867471,-42.875
1772908541.9717999,7.019471557750975e-05,0.8531505477766195,-9.193108408673199,0.07170674206488616,1.588332910406402,9.748780793345366,-0.0010898068867269033,-4.725193841997253e-05,-0.003272492347489368,-1.1357547923899218,14.652055053867471,-42.875
1772908541.9885037,7.019471557750975e-05,0.8531505477766195,-9.193108408673199,0.07481027579387922,1.5905648566888682,9.745843519883453,0.0011370588251468758,-0.0010425549483069308,0.001090830782496456,-1.9202461899034362,15.431304370342817,-43.25
1772908542.0281916,7.019471557750975e-05,0.8531505477766195,-9.193108408673199,0.07353367096509703,1.5919052905112514,9.750579020620682,0.0010425549483069308,0.0011370588251468758,-0.002181661564992912,-1.9202461899034362,15.431304370342817,-43.25
1772908542.0484905,7.019471557750975e-05,0.8531505477766195,-9.193108408673199,0.07353367096509703,1.5919052905112514,9.750579020620682,0.0010425549483069308,0.0011370588251468758,-0.002181661564992912,-1.9202461899034362,15.431304370342817,-43.25
1772908542.0733514,7.019471557750975e-05,0.8531505477766195,-9.193108408673199,0.0728290062082771,1.589455362389737,9.753730443462299,0.0010425549483069308,0.0011370588251468758,0.0,-2.9301368979844358,15.637752324393366,-42.875
1772908542.1025577,7.019471557750975e-05,0.8531505477766195,-9.193108408673199,0.06916298932367515,1.5843380892395513,9.759172791867014,0.0022268657118737793,-0.0009953030098869583,-0.002181661564992912,-2.9301368979844358,15.637752324393366,-42.875
1772908542.1433473,7.019471557750975e-05,0.8531505477766195,-9.193108408673199,0.06672329603906445,1.5809326011217892,9.762794613935338,9.450387683994507e-05,-0.0021796137734538066,0.001090830782496456,-2.1972574889835585,14.606030330897772,-42.875
1772908542.179469,7.019471557750975e-05,0.8531505477766195,-9.193108408673199,0.06672329603906445,1.5809326011217892,9.762794613935338,9.450387683994507e-05,-0.0021796137734538066,0.001090830782496456,-2.1972574889835585,14.606030330897772,-42.875
1772908542.208257,7.019471557750975e-05,0.8531505477766195,-9.193108408673199,0.0649548059151914,1.5820082586778972,9.765204896063404,4.725193841997253e-05,-0.0010898068867269033,0.0,-2.1972574889835585,14.606030330897772,-42.875
1772908542.2387097,7.019471557750975e-05,0.8531505477766195,-9.193108408673199,0.07031693771032614,1.5863558716145374,9.766808911895016,0.0,0.0,0.001090830782496456,-2.178306132466623,14.168940985241568,-43.6875
1772908542.2609746,7.019471557750975e-05,0.8531505477766195,-9.193108408673199,0.07388537652105143,1.5892491594578526,9.764531254805604,4.725193841997253e-05,-0.0010898068867269033,0.0,-2.178306132466623,14.168940985241568,-43.6875
1772908542.2778668,7.019471557750975e-05,0.8531505477766195,-9.193108408673199,0.07388537652105143,1.5892491594578526,9.764531254805604,4.725193841997253e-05,-0.0010898068867269033,0.0,-2.178306132466623,14.168940985241568,-43.6875
1772908542.2939942,7.019471557750975e-05,0.8531505477766195,-9.193108408673199,0.07291816083083201,1.5910297087013117,9.756325276041059,-4.725193841997253e-05,0.0010898068867269033,0.003272492347489368,-2.669542211028356,15.398816330599498,-42.0625
1772908542.3313167,7.019471557750975e-05,0.8531505477766195,-9.193108408673199,0.07291816083083201,1.5910297087013117,9.756325276041059,-4.725193841997253e-05,0.0010898068867269033,0.003272492347489368,-2.669542211028356,15.398816330599498,-42.0625
1772908542.3630266,7.019471557750975e-05,0.8531505477766195,-9.193108408673199,0.06893251773681441,1.592069742836671,9.754209400547362,0.0,0.0,0.001090830782496456,-2.669542211028356,15.398816330599498,-42.0625
1772908542.394565,7.019471557750975e-05,0.8531505477766195,-9.193108408673199,0.06628011678029633,1.59276187393581,9.752801309042184,0.0,0.0,0.002181661564992912,-2.669542211028356,15.398816330599498,-42.0625
1772908542.4347062,7.019471557750975e-05,0.8531505477766195,-9.193108408673199,0.0645149735729936,1.5932224794506764,9.75520935158222,-0.0010425549483069308,-0.0011370588251468758,0.0,-1.9012948333865007,14.994215024686614,-42.875
1772908542.4499414,7.019471557750975e-05,0.8531505477766195,-9.193108408673199,0.06334029048647526,1.593529007275519,9.756811876993016,-0.0021796137734538066,-9.450387683994507e-05,0.002181661564992912,-1.9012948333865007,14.994215024686614,-42.875
1772908542.4736474,7.019471557750975e-05,0.8531505477766195,-9.193108408673199,0.06334029048647526,1.593529007275519,9.756811876993016,-0.0021796137734538066,-9.450387683994507e-05,0.002181661564992912,-1.9012948333865007,14.994215024686614,-42.875
1772908542.4903183,7.019471557750975e-05,0.8531505477766195,-9.193108408673199,0.06575562237502659,1.5972198714716197,9.75787833975252,0.0010425549483069308,0.0011370588251468758,0.0,-2.8651608184977997,14.139160282143527,-43.6875
1772908542.5257604,7.019471557750975e-05,0.8531505477766195,-9.193108408673199,0.06750790026195676,1.5963341285077863,9.758588058805799,0.0010898068867269033,4.725193841997253e-05,0.003272492347489368,-2.8651608184977997,14.139160282143527,-43.6875
1772908542.54261,7.019471557750975e-05,0.8531505477766195,-9.193108408673199,0.0686740216214822,1.5957446764597527,9.759060368907676,0.0010898068867269033,4.725193841997253e-05,0.001090830782496456,-2.8651608184977997,14.139160282143527,-43.6875
1772908542.5742347,7.019471557750975e-05,0.8531505477766195,-9.193108408673199,0.06959496385594158,1.5920104308497132,9.759374686004426,4.725193841997253e-05,-0.0010898068867269033,0.002181661564992912,-2.680371557609462,15.648581670974473,-42.875
1772908542.586885,7.019471557750975e-05,0.8531505477766195,-9.193108408673199,0.06959496385594158,1.5920104308497132,9.759374686004426,4.725193841997253e-05,-0.0010898068867269033,0.002181661564992912,-2.680371557609462,15.648581670974473,-42.875
1772908542.6167839,7.019471557750975e-05,0.8531505477766195,-9.193108408673199,0.0702078406253755,1.5895253321104885,9.759583860521161,0.0010898068867269033,4.725193841997253e-05,0.001090830782496456,-2.680371557609462,15.648581670974473,-42.875
1772908542.6411395,7.019471557750975e-05,0.8531505477766195,-9.193108408673199,0.07395767512583536,1.5880164281560307,9.763068175532734,0.0010425549483069308,0.0011370588251468758,-0.001090830782496456,-2.669542211028356,15.398816330599498,-42.875
1772908542.6650288,7.019471557750975e-05,0.8531505477766195,-9.193108408673199,0.0764531480974954,1.5870122694299007,9.762041836543268,0.0,0.0,-0.001090830782496456,-2.669542211028356,15.398816330599498,-42.875
1772908542.6802907,7.019471557750975e-05,0.8531505477766195,-9.193108408673199,0.0764531480974954,1.5870122694299007,9.762041836543268,0.0,0.0,-0.001090830782496456,-2.669542211028356,15.398816330599498,-42.875
1772908542.7219875,7.019471557750975e-05,0.8531505477766195,-9.193108408673199,0.07811385748387555,1.586344013014849,9.761358819410736,0.0012788146404067934,-0.0043119756084876405,-0.001090830782496456,-2.669542211028356,15.398816330599498,-42.875
1772908542.750677,7.019471557750975e-05,0.8531505477766195,-9.193108408673199,0.07239019581968037,1.5889514646999805,9.760904279138838,0.0,0.0,-0.001090830782496456,-2.6505908545114205,14.961726984943295,-42.1875
1772908542.7742984,7.019471557750975e-05,0.8531505477766195,-9.193108408673199,0.0685811629196486,1.590686694669292,9.760601787665436,-0.0010898068867269033,-4.725193841997253e-05,0.0,-2.6505908545114205,14.961726984943295,-42.1875
1772908542.7935576,7.019471557750975e-05,0.8531505477766195,-9.193108408673199,0.06590139257823864,1.5951834426867635,9.760400482968938,-9.450387683994507e-05,0.0021796137734538066,-0.001090830782496456,-2.6505908545114205,14.961726984943295,-42.1875
1772908542.834474,7.019471557750975e-05,0.8531505477766195,-9.193108408673199,0.06746000720771017,1.5983208797565485,9.76026651694214,0.0,0.0,0.001090830782496456,-2.1972574889835585,14.606030330897772,-43.25
1772908542.8628328,7.019471557750975e-05,0.8531505477766195,-9.193108408673199,0.06746000720771017,1.5983208797565485,9.76026651694214,0.0,0.0,0.001090830782496456,-2.1972574889835585,14.606030330897772,-43.25
1772908542.883179,7.019471557750975e-05,0.8531505477766195,-9.193108408673199,0.0684972478327573,1.6004088090790218,9.760177364047806,0.0,0.0,0.001090830782496456,-2.1972574889835585,14.606030330897772,-43.25
1772908542.897975,7.019471557750975e-05,0.8531505477766195,-9.193108408673199,0.06933242137811346,1.5984563308627453,9.760118033792528,0.0011370588251468758,-0.0010425549483069308,-0.001090830782496456,-2.1972574889835585,14.606030330897772,-43.25
1772908542.9152312,7.019471557750975e-05,0.8531505477766195,-9.193108408673199,0.06933242137811346,1.5984563308627453,9.760118033792528,0.0011370588251468758,-0.0010425549483069308,-0.001090830782496456,-2.1972574889835585,14.606030330897772,-43.25
1772908542.9510615,7.019471557750975e-05,0.8531505477766195,-9.193108408673199,0.0698882200430482,1.597156978420424,9.760078550170403,0.0010898068867269033,4.725193841997253e-05,0.0,-2.6343468346397616,14.587078974380836,-42.5
1772908542.966618,7.019471557750975e-05,0.8531505477766195,-9.193108408673199,0.0736000697025681,1.5964371753809012,9.760052274260941,0.0010898068867269033,4.725193841997253e-05,-0.001090830782496456,-2.6343468346397616,14.587078974380836,-42.5
1772908542.9808345,7.019471557750975e-05,0.8531505477766195,-9.193108408673199,0.07272829233021733,1.5958132530027016,9.760034787936714,0.0010898068867269033,4.725193841997253e-05,0.0,-2.6343468346397616,14.587078974380836,-42.5
1772908543.009954,7.019471557750975e-05,0.8531505477766195,-9.193108408673199,0.07272829233021733,1.5958132530027016,9.760034787936714,0.0010898068867269033,4.725193841997253e-05,0.0,-2.6343468346397616,14.587078974380836,-42.5
1772908543.0276499,7.019471557750975e-05,0.8531505477766195,-9.193108408673199,0.07549010608399294,1.5955429411258035,9.756678039275958,0.0010425549483069308,0.0011370588251468758,0.0,-1.4914514464354462,14.198721688339608,-42.875
1772908543.0425906,7.019471557750975e-05,0.8531505477766195,-9.193108408673199,0.07413099192509007,1.5918761782385016,9.757789272246882,0.0010425549483069308,0.0011370588251468758,0.0,-1.4914514464354462,14.198721688339608,-42.875
1772908543.0548766,7.019471557750975e-05,0.8531505477766195,-9.193108408673199,0.07413099192509007,1.5918761782385016,9.757789272246882,0.0010425549483069308,0.0011370588251468758,0.0,-1.4914514464354462,14.198721688339608,-42.875
1772908543.071981,7.019471557750975e-05,0.8531505477766195,-9.193108408673199,0.07322651663464015,1.5894359884974274,9.761873897083067,0.0010425549483069308,0.0011370588251468758,0.0,-1.4914514464354462,14.198721688339608,-42.875
1772908543.0881817,7.019471557750975e-05,0.8531505477766195,-9.193108408673199,0.06928262657581304,1.5876671679873233,9.764592169283299,0.0010898068867269033,4.725193841997253e-05,0.0,-3.3563968970595326,15.369035627501457,-43.375
1772908543.1157413,7.019471557750975e-05,0.8531505477766195,-9.193108408673199,0.06651311030167792,1.589832009553553,9.763056037360144,-0.0010425549483069308,-0.0011370588251468758,0.0,-3.3563968970595326,15.369035627501457,-43.375
1772908543.1350772,7.019471557750975e-05,0.8531505477766195,-9.193108408673199,0.06467002815876485,1.5912726874330139,9.762033758725002,-9.450387683994507e-05,0.0021796137734538066,0.002181661564992912,-3.3563968970595326,15.369035627501457,-43.375
1772908543.1532223,7.019471557750975e-05,0.8531505477766195,-9.193108408673199,0.06467002815876485,1.5912726874330139,9.762033758725002,-9.450387683994507e-05,0.0021796137734538066,0.002181661564992912,-3.3563968970595326,15.369035627501457,-43.375
1772908543.1674128,7.019471557750975e-05,0.8531505477766195,-9.193108408673199,0.06344347758123281,1.5922314424683686,9.761353443712915,-4.725193841997253e-05,0.0010898068867269033,0.003272492347489368,-1.8552701104168003,13.932712328092977,-43.25
1772908543.1827977,7.019471557750975e-05,0.8531505477766195,-9.193108408673199,0.06262722187335296,1.5928694832344015,9.760900701671988,4.725193841997253e-05,-0.0010898068867269033,0.003272492347489368,-1.8552701104168003,13.932712328092977,-43.25
1772908543.1957426,7.019471557750975e-05,0.8531505477766195,-9.193108408673199,0.06262722187335296,1.5928694832344015,9.760900701671988,4.725193841997253e-05,-0.0010898068867269033,0.003272492347489368,-1.8552701104168003,13.932712328092977,-43.25
1772908543.208381,7.019471557750975e-05,0.8531505477766195,-9.193108408673199,0.06542598467461633,1.5934389937329387,9.76059940690121,-0.0010425549483069308,-0.0011370588251468758,0.001090830782496456,-1.8552701104168003,13.932712328092977,-43.25
1772908543.2214427,7.019471557750975e-05,0.8531505477766195,-9.193108408673199,0.06728853005462809,1.593817996607866,9.760398898596941,0.0011370588251468758,-0.0010425549483069308,0.0,-2.1972574889835585,14.606030330897772,-44.0625
1772908543.2355332,7.019471557750975e-05,0.8531505477766195,-9.193108408673199,0.06728853005462809,1.593817996607866,9.760398898596941,0.0011370588251468758,-0.0010425549483069308,0.0,-2.1972574889835585,14.606030330897772,-44.0625
1772908543.2500198,7.019471557750975e-05,0.8531505477766195,-9.193108408673199,0.06852803319903078,1.5940702187873905,9.760265462560275,0.0010425549483069308,0.0011370588251468758,0.003272492347489368,-2.1972574889835585,14.606030330897772,-44.0625
1772908543.2652643,7.019471557750975e-05,0.8531505477766195,-9.193108408673199,0.06935290869547338,1.5942380698303578,9.760176662368451,-0.0009953030098869583,-0.0022268657118737793,0.0,-2.1972574889835585,14.606030330897772,-44.0625
1772908543.2984672,7.019471557750975e-05,0.8531505477766195,-9.193108408673199,0.06935290869547338,1.5942380698303578,9.760176662368451,-0.0009953030098869583,-0.0022268657118737793,0.0,-2.1972574889835585,14.606030330897772,-44.0625
1772908543.334236,7.019471557750975e-05,0.8531505477766195,-9.193108408673199,0.06990185412389288,1.5943497728244334,9.760117566832756,-4.725193841997253e-05,0.0010898068867269033,0.002181661564992912,-2.178306132466623,14.168940985241568,-42.1875
1772908543.384654,7.019471557750975e-05,0.8531505477766195,-9.193108408673199,0.06828624065227547,1.5943771500983301,9.760052067455954,0.0011370588251468758,-0.0010425549483069308,0.001090830782496456,-1.1357547923899218,14.652055053867471,-42.0625
1772908543.4052527,7.019471557750975e-05,0.8531505477766195,-9.193108408673199,0.06828624065227547,1.5943771500983301,9.760052067455954,0.0011370588251468758,-0.0010425549483069308,0.001090830782496456,-1.1357547923899218,14.652055053867471,-42.0625
1772908543.431515,7.019471557750975e-05,0.8531505477766195,-9.193108408673199,0.07253397031329116,1.594587230685265,9.760034650310306,0.0,0.0,0.002181661564992912,-1.1357547923899218,14.652055053867471,-42.0625
1772908543.4596317,7.019471557750975e-05,0.8531505477766195,-9.193108408673199,0.07521588545632343,1.5980690088258,9.75667794768712,0.0011370588251468758,-0.0010425549483069308,-0.001090830782496456,-2.1972574889835585,14.606030330897772,-43.6875
1772908543.4878743,7.019471557750975e-05,0.8531505477766195,-9.193108408673199,0.07365869816837252,1.6002411917881914,9.754444099588214,9.450387683994507e-05,-0.0021796137734538066,0.0,-2.1972574889835585,14.606030330897772,-43.6875
1772908543.5156264,7.019471557750975e-05,0.8531505477766195,-9.193108408673199,0.0727673089192873,1.5983447834281055,9.752957498632112,0.0011370588251468758,-0.0010425549483069308,0.001090830782496456,-2.1972574889835585,14.606030330897772,-43.6875
1772908543.537374,7.019471557750975e-05,0.8531505477766195,-9.193108408673199,0.07217409933149142,1.597082744848738,9.762003517424205,-0.0011370588251468758,0.0010425549483069308,0.001090830782496456,-1.1519988122615807,15.026703064429931,-43.375
1772908543.5648358,7.019471557750975e-05,0.8531505477766195,-9.193108408673199,0.07217409933149142,1.597082744848738,9.762003517424205,-0.0011370588251468758,0.0010425549483069308,0.001090830782496456,-1.1519988122615807,15.026703064429931,-43.375
1772908543.592996,7.019471557750975e-05,0.8531505477766195,-9.193108408673199,0.07177932497739858,1.5962428722720632,9.761333318465052,4.725193841997253e-05,-0.0010898068867269033,0.0,-1.1519988122615807,15.026703064429931,-43.375
1772908543.623757,7.019471557750975e-05,0.8531505477766195,-9.193108408673199,0.07177932497739858,1.5962428722720632,9.761333318465052,4.725193841997253e-05,-0.0010898068867269033,0.0,-1.1519988122615807,15.026703064429931,-43.375
1772908543.6586492,7.019471557750975e-05,0.8531505477766195,-9.193108408673199,0.0683195366941088,1.5921970731014699,9.76088730854435,0.0022268657118737793,-0.0009953030098869583,0.0,-1.8850508135148418,14.619567014124154,-42.875
1772908543.6827025,7.019471557750975e-05,0.8531505477766195,-9.193108408673199,0.06935905809663069,1.589649540444102,9.76059049392438,-0.0010898068867269033,-4.725193841997253e-05,0.001090830782496456,-1.8850508135148418,14.619567014124154,-42.875
1772908543.7260294,7.019471557750975e-05,0.8531505477766195,-9.193108408673199,0.06990594648166977,1.5912961577751121,9.760392967110425,0.0009480510714669856,0.0033166725986006826,0.001090830782496456,-1.8363187538998649,13.495622982436773,-42.5
1772908543.7569776,7.019471557750975e-05,0.8531505477766195,-9.193108408673199,0.07012499309664542,1.5957339350716622,9.760261515222258,-0.0001417558152599176,0.0032694206601807103,0.001090830782496456,-1.8363187538998649,13.495622982436773,-42.5
1772908543.7716494,7.019471557750975e-05,0.8531505477766195,-9.193108408673199,0.07012499309664542,1.5957339350716622,9.760261515222258,-0.0001417558152599176,0.0032694206601807103,0.001090830782496456,-1.8363187538998649,13.495622982436773,-42.5
1772908543.7976933,7.019471557750975e-05,0.8531505477766195,-9.193108408673199,0.070415667668125,1.5953452544326119,9.760174035459096,-0.0010898068867269033,-4.725193841997253e-05,0.003272492347489368,-1.8363187538998649,13.495622982436773,-42.5
1772908543.8292642,7.019471557750975e-05,0.8531505477766195,-9.193108408673199,0.07046420685227263,1.5984285636658548,9.760115818653926,0.0010898068867269033,4.725193841997253e-05,0.002181661564992912,-2.6343468346397616,14.587078974380836,-42.875
1772908543.8682573,7.019471557750975e-05,0.8531505477766195,-9.193108408673199,0.07064141063322896,1.5971384996610734,9.760077076020409,0.0009953030098869583,0.0022268657118737793,0.001090830782496456,-2.6343468346397616,14.587078974380836,-42.875
1772908543.8862505,7.019471557750975e-05,0.8531505477766195,-9.193108408673199,0.07075933776995949,1.5962799764768507,9.760051293230585,0.0,0.0,0.002181661564992912,-2.6343468346397616,14.587078974380836,-43.25
1772908543.914931,7.019471557750975e-05,0.8531505477766195,-9.193108408673199,0.07083781696212119,1.5957086388880828,9.760034135071972,0.0010425549483069308,0.0011370588251468758,0.0,-2.6343468346397616,14.587078974380836,-43.25
1772908543.927345,7.019471557750975e-05,0.8531505477766195,-9.193108408673199,0.07083781696212119,1.5957086388880828,9.760034135071972,0.0010425549483069308,0.0011370588251468758,0.0,-2.6343468346397616,14.587078974380836,-43.25
1772908543.9453704,7.019471557750975e-05,0.8531505477766195,-9.193108408673199,0.07089004398783481,1.5953284201050166,9.760022716509084,0.0011370588251468758,-0.0010425549483069308,0.0,-2.6343468346397616,14.587078974380836,-43.25
1772908543.9764352,7.019471557750975e-05,0.8531505477766195,-9.193108408673199,0.07092480049003312,1.5950753887522084,9.760015117583036,4.725193841997253e-05,-0.0010898068867269033,0.0,-1.5104028029523817,14.635811033995813,-43.25
1772908544.0061018,7.019471557750975e-05,0.8531505477766195,-9.193108408673199,0.07094793055399051,1.59490699921346,9.760010060582635,-0.0021796137734538066,-9.450387683994507e-05,0.002181661564992912,-1.5104028029523817,14.635811033995813,-43.25
1772908544.0883524,7.019471557750975e-05,0.8531505477766195,-9.193108408673199,0.07110822484929875,1.5914529659997732,9.763351806912679,0.0009480510714669856,0.0033166725986006826,0.003272492347489368,-2.6343468346397616,14.587078974380836,-43.375
1772908544.117415,7.019471557750975e-05,0.8531505477766195,-9.193108408673199,0.07121489891222174,1.589154345480144,9.76557570176557,0.0009953030098869583,0.0022268657118737793,0.001090830782496456,-2.6343468346397616,14.587078974380836,-43.375
1772908544.1590636,7.019471557750975e-05,0.8531505477766195,-9.193108408673199,0.07121489891222174,1.589154345480144,9.76557570176557,0.0009953030098869583,0.0022268657118737793,0.001090830782496456,-2.6343468346397616,14.587078974380836,-43.375
1772908544.216042,7.019471557750975e-05,0.8531505477766195,-9.193108408673199,0.07128588930946965,1.5876246392016042,9.763710567240317,0.0,0.0,-0.001090830782496456,-2.8651608184977997,14.139160282143527,-42.875
1772908544.257823,7.019471557750975e-05,0.8531505477766195,-9.193108408673199,0.06799116076913968,1.5864617352650507,9.762469341048678,0.0,0.0,0.001090830782496456,-2.8651608184977997,14.139160282143527,-42.875
1772908544.283692,7.019471557750975e-05,0.8531505477766195,-9.193108408673199,0.06885072459451455,1.5925166808952544,9.761643318883548,-0.0010425549483069308,-0.0011370588251468758,0.0,-2.615395478122826,14.149989628724633,-43.375
1772908544.3031995,7.019471557750975e-05,0.8531505477766195,-9.193108408673199,0.06885072459451455,1.5925166808952544,9.761643318883548,-0.0010425549483069308,-0.0011370588251468758,0.0,-2.615395478122826,14.149989628724633,-43.375
1772908544.3686383,7.019471557750975e-05,0.8531505477766195,-9.193108408673199,0.06273881100497698,1.5962563765817315,9.754403386945288,9.450387683994507e-05,-0.0021796137734538066,0.0,-2.615395478122826,14.149989628724633,-43.375
1772908544.3999124,7.019471557750975e-05,0.8531505477766195,-9.193108408673199,0.06535534449905553,1.5990349052781927,9.749585293115715,0.0,0.0,-0.001090830782496456,-1.4914514464354462,14.198721688339608,-43.25
1772908544.4188008,7.019471557750975e-05,0.8531505477766195,-9.193108408673199,0.06535534449905553,1.5990349052781927,9.749585293115715,0.0,0.0,-0.001090830782496456,-1.4914514464354462,14.198721688339608,-43.25
1772908544.4739916,7.019471557750975e-05,0.8531505477766195,-9.193108408673199,0.06724151980689486,1.5975420132308047,9.749724017201087,-4.725193841997253e-05,0.0010898068867269033,0.002181661564992912,-1.4914514464354462,14.198721688339608,-43.25
1772908544.5079534,7.019471557750975e-05,0.8531505477766195,-9.193108408673199,0.0718387202609869,1.5966934117460891,9.753161448237572,-4.725193841997253e-05,0.0010898068867269033,0.0,-2.1674767858855173,13.919175644866595,-42.1875
1772908544.547789,7.019471557750975e-05,0.8531505477766195,-9.193108408673199,0.0718387202609869,1.5966934117460891,9.753161448237572,-4.725193841997253e-05,0.0010898068867269033,0.0,-2.1674767858855173,13.919175644866595,-42.1875
1772908544.5856705,7.019471557750975e-05,0.8531505477766195,-9.193108408673199,0.07155613395240745,1.5959837754413864,9.755449020193733,4.725193841997253e-05,-0.0010898068867269033,0.0,-2.1674767858855173,13.919175644866595,-42.1875
1772908544.6411006,7.019471557750975e-05,0.8531505477766195,-9.193108408673199,0.07122317442461946,1.5988534922644473,9.756971373776706,-0.0010898068867269033,-4.725193841997253e-05,0.001090830782496456,-2.884112175014735,14.57624962779973,-43.25
1772908544.6692507,7.019471557750975e-05,0.8531505477766195,-9.193108408673199,0.07122317442461946,1.5988534922644473,9.756971373776706,-0.0010898068867269033,-4.725193841997253e-05,0.001090830782496456,-2.884112175014735,14.57624962779973,-43.25
1772908544.6940155,7.019471557750975e-05,0.8531505477766195,-9.193108408673199,0.07100159357827819,1.600763256753357,9.757984483080369,0.0022268657118737793,-0.0009953030098869583,-0.002181661564992912,-2.884112175014735,14.57624962779973,-43.25
1772908544.7142582,7.019471557750975e-05,0.8531505477766195,-9.193108408673199,0.07434100735306633,1.5988371133266996,9.762003807712103,0.0010898068867269033,4.725193841997253e-05,-0.001090830782496456,-2.6045661315417203,13.900224288349659,-42.1875
1772908544.7306519,7.019471557750975e-05,0.8531505477766195,-9.193108408673199,0.07434100735306633,1.5988371133266996,9.762003807712103,0.0010898068867269033,4.725193841997253e-05,-0.001090830782496456,-2.6045661315417203,13.900224288349659,-42.1875
1772908544.7492507,7.019471557750975e-05,0.8531505477766195,-9.193108408673199,0.07656334991649173,1.5975552863926912,9.751298176526449,9.450387683994507e-05,-0.0021796137734538066,-0.001090830782496456,-2.6045661315417203,13.900224288349659,-42.1875
1772908544.7634163,7.019471557750975e-05,0.8531505477766195,-9.193108408673199,0.07656334991649173,1.5975552863926912,9.751298176526449,9.450387683994507e-05,-0.0021796137734538066,-0.001090830782496456,-2.6045661315417203,13.900224288349659,-42.1875
1772908544.779534,7.019471557750975e-05,0.8531505477766195,-9.193108408673199,0.07135835035389082,1.5964124418948051,9.747518810269451,4.725193841997253e-05,-0.0010898068867269033,-0.001090830782496456,-2.6045661315417203,13.900224288349659,-42.1875
1772908544.8015814,7.019471557750975e-05,0.8531505477766195,-9.193108408673199,0.06789448128863476,1.5956518916478712,9.745003684243706,0.0010425549483069308,0.0011370588251468758,-0.001090830782496456,-2.6505908545114205,14.961726984943295,-41.375
1772908544.867373,7.019471557750975e-05,0.8531505477766195,-9.193108408673199,0.06558931511965968,1.5951457539544398,9.75002011938401,9.450387683994507e-05,-0.0021796137734538066,0.0,-2.6505908545114205,14.961726984943295,-41.375
1772908544.903207,7.019471557750975e-05,0.8531505477766195,-9.193108408673199,0.06558931511965968,1.5951457539544398,9.75002011938401,9.450387683994507e-05,-0.0021796137734538066,0.0,-2.6505908545114205,14.961726984943295,-41.375
1772908544.9660606,7.019471557750975e-05,0.8531505477766195,-9.193108408673199,0.06081030649886577,1.5944883387221123,9.75558015656107,0.002132361835033834,0.0011843107635668485,-0.002181661564992912,-1.4914514464354462,14.198721688339608,-43.375
1772908544.9801335,7.019471557750975e-05,0.8531505477766195,-9.193108408673199,0.06081030649886577,1.5944883387221123,9.75558015656107,0.002132361835033834,0.0011843107635668485,-0.002181661564992912,-1.4914514464354462,14.198721688339608,-43.375
1772908544.9940605,7.019471557750975e-05,0.8531505477766195,-9.193108408673199,0.06087487593248596,1.594371422480085,9.75371353185696,0.0,0.0,0.001090830782496456,-1.4914514464354462,14.198721688339608,-43.375
1772908545.0155725,7.019471557750975e-05,0.8531505477766195,-9.193108408673199,0.06425981802595614,1.59443851752318,9.749126202260618,-0.0010898068867269033,-4.725193841997253e-05,0.002181661564992912,-2.178306132466623,14.168940985241568,-42.875
1772908545.0322049,7.019471557750975e-05,0.8531505477766195,-9.193108408673199,0.06425981802595614,1.59443851752318,9.749126202260618,-0.0010898068867269033,-4.725193841997253e-05,0.002181661564992912,-2.178306132466623,14.168940985241568,-42.875
1772908545.064486,7.019471557750975e-05,0.8531505477766195,-9.193108408673199,0.06651245917687977,1.5944831685248593,9.742728273950762,-0.0010898068867269033,-4.725193841997253e-05,-0.002181661564992912,-2.178306132466623,14.168940985241568,-42.875
1772908545.112017,7.019471557750975e-05,0.8531505477766195,-9.193108408673199,0.068011566699169,1.5945128832676922,9.738470524130095,-0.0009480510714669856,-0.0033166725986006826,0.001090830782496456,-2.884112175014735,14.57624962779973,-42.5
1772908545.151732,7.019471557750975e-05,0.8531505477766195,-9.193108408673199,0.06566723415244047,1.594387756600988,9.738982150893943,-0.0010898068867269033,-4.725193841997253e-05,0.001090830782496456,-2.884112175014735,14.57624962779973,-42.5
1772908545.208896,7.019471557750975e-05,0.8531505477766195,-9.193108408673199,0.06410710703050307,1.5943044862020528,9.742667744497357,0.002132361835033834,0.0011843107635668485,0.0,-3.3022501641540027,14.12020892562659,-42.875
1772908545.2579641,7.019471557750975e-05,0.8531505477766195,-9.193108408673199,0.0630688598586156,1.5942490706817527,9.745120465869652,0.0010898068867269033,4.725193841997253e-05,0.001090830782496456,-3.3022501641540027,14.12020892562659,-42.875
1772908545.2854211,7.019471557750975e-05,0.8531505477766195,-9.193108408673199,0.06237791796370536,1.594212192272025,9.746752724544221,0.0010425549483069308,0.0011370588251468758,-0.001090830782496456,-2.1972574889835585,14.606030330897772,-42.875
1772908545.3114228,7.019471557750975e-05,0.8531505477766195,-9.193108408673199,0.06526007570765299,1.5943325515984341,9.751184086165942,-9.450387683994507e-05,0.0021796137734538066,0.001090830782496456,-2.1972574889835585,14.606030330897772,-42.875
1772908545.3545902,7.019471557750975e-05,0.8531505477766195,-9.193108408673199,0.06703321799431429,1.5977546212423415,9.754133107823645,0.0011370588251468758,-0.0010425549483069308,0.002181661564992912,-2.6343468346397616,14.587078974380836,-42.5
1772908545.389722,7.019471557750975e-05,0.8531505477766195,-9.193108408673199,0.06835812587491451,1.5966899985066554,9.756095648794116,0.0011370588251468758,-0.0010425549483069308,0.0,-2.6343468346397616,14.587078974380836,-42.5
1772908545.4523745,7.019471557750975e-05,0.8531505477766195,-9.193108408673199,0.06923983726926318,1.5959815039686716,9.757401697886944,-0.0010898068867269033,-4.725193841997253e-05,0.001090830782496456,-2.178306132466623,14.168940985241568,-43.6875
1772908545.480771,7.019471557750975e-05,0.8531505477766195,-9.193108408673199,0.06923983726926318,1.5959815039686716,9.757401697886944,-0.0010898068867269033,-4.725193841997253e-05,0.001090830782496456,-2.178306132466623,14.168940985241568,-43.6875
1772908545.5323787,7.019471557750975e-05,0.8531505477766195,-9.193108408673199,0.06982660635284059,1.5955100087680458,9.758270858968698,9.450387683994507e-05,-0.0021796137734538066,0.003272492347489368,-2.178306132466623,14.168940985241568,-43.6875
1772908545.553434,7.019471557750975e-05,0.8531505477766195,-9.193108408673199,0.07007219312719692,1.5985382058356596,9.75884927595944,-9.450387683994507e-05,0.0021796137734538066,0.0,-2.232452865372153,15.417767687116434,-42.5
1772908545.591458,7.019471557750975e-05,0.8531505477766195,-9.193108408673199,0.07023562838214703,1.600553437156979,9.759234206005438,4.725193841997253e-05,-0.0010898068867269033,-0.001090830782496456,-2.232452865372153,15.417767687116434,-42.5
1772908545.6612663,7.019471557750975e-05,0.8531505477766195,-9.193108408673199,0.07019949122250062,1.6052365229463919,9.762835484358417,-0.0001417558152599176,0.0032694206601807103,-0.001090830782496456,-2.232452865372153,15.417767687116434,-42.5
1772908545.69206,7.019471557750975e-05,0.8531505477766195,-9.193108408673199,0.06392620312143987,1.5980373456634502,9.76523209487341,4.725193841997253e-05,-0.0010898068867269033,0.001090830782496456,-1.8552701104168003,13.932712328092977,-42.5
1772908545.7800264,7.019471557750975e-05,0.8531505477766195,-9.193108408673199,0.06600063919239826,1.6035620921640321,9.763481900691925,9.450387683994507e-05,-0.0021796137734538066,0.0,-1.8552701104168003,13.932712328092977,-42.5
1772908545.815941,7.019471557750975e-05,0.8531505477766195,-9.193108408673199,0.06113191399965724,1.5969230306824072,9.758972054307778,-0.0009953030098869583,-0.0022268657118737793,0.0,-2.615395478122826,14.149989628724633,-43.25
1772908545.8936472,7.019471557750975e-05,0.8531505477766195,-9.193108408673199,0.06428597249223095,1.5994785561351783,9.755970801917412,9.450387683994507e-05,-0.0021796137734538066,-0.001090830782496456,-2.615395478122826,14.149989628724633,-43.25
1772908545.9703562,7.019471557750975e-05,0.8531505477766195,-9.193108408673199,0.06638496318589684,1.6011792297769074,9.75397350197781,0.0010898068867269033,4.725193841997253e-05,0.0,-2.8651608184977997,14.139160282143527,-42.5
1772908545.9958858,7.019471557750975e-05,0.8531505477766195,-9.193108408673199,0.07112378990195282,1.6024559105838332,9.752644321179307,0.0011843107635668483,-0.002132361835033834,0.0,-2.8651608184977997,14.139160282143527,-42.5
1772908546.037212,7.019471557750975e-05,0.8531505477766195,-9.193108408673199,0.07442232764144945,1.5999635555426994,9.751759766205826,0.0,0.0,0.0,-2.2135015088552175,14.980678341460232,-42.875
1772908546.0784857,7.019471557750975e-05,0.8531505477766195,-9.193108408673199,0.07442232764144945,1.5999635555426994,9.751759766205826,0.0,0.0,0.0,-2.2135015088552175,14.980678341460232,-42.875
1772908546.11049,7.019471557750975e-05,0.8531505477766195,-9.193108408673199,0.07661746766000355,1.598304921104255,9.7511711047521,0.0033639245370206553,-0.002037857958193889,0.002181661564992912,-2.2135015088552175,14.980678341460232,-42.875
1772908546.1512978,7.019471557750975e-05,0.8531505477766195,-9.193108408673199,0.0780783088210306,1.597201118413631,9.750779357130424,0.001231562701986821,-0.0032221687217607376,0.0,-2.8651608184977997,14.139160282143527,-43.6875
1772908546.1764588,7.019471557750975e-05,0.8531505477766195,-9.193108408673199,0.07905048229502912,1.5964665500533048,9.753863765171626,-0.0010898068867269033,-4.725193841997253e-05,0.0,-2.8651608184977997,14.139160282143527,-43.6875
1772908546.2204251,7.019471557750975e-05,0.8531505477766195,-9.193108408673199,0.07650038252152641,1.5924908296623657,9.755916404267952,-0.0010898068867269033,-4.725193841997253e-05,0.0,-1.4806220998543402,13.948956347964636,-42.0625
1772908546.241495,7.019471557750975e-05,0.8531505477766195,-9.193108408673199,0.07480331960874133,1.5898450321539024,9.760627524364395,-9.450387683994507e-05,0.0021796137734538066,0.001090830782496456,-1.4806220998543402,13.948956347964636,-42.0625
1772908546.2653694,7.019471557750975e-05,0.8531505477766195,-9.193108408673199,0.07367394319771772,1.588084283467515,9.763762722161918,-0.0001417558152599176,0.0032694206601807103,0.001090830782496456,-1.4806220998543402,13.948956347964636,-42.0625
1772908546.2996259,7.019471557750975e-05,0.8531505477766195,-9.193108408673199,0.07367394319771772,1.588084283467515,9.763762722161918,-0.0001417558152599176,0.0032694206601807103,0.001090830782496456,-1.4806220998543402,13.948956347964636,-42.0625
1772908546.3271897,7.019471557750975e-05,0.8531505477766195,-9.193108408673199,0.07277745431601838,1.5902544967422594,9.762504049566395,-0.0010425549483069308,-0.0011370588251468758,0.001090830782496456,-2.615395478122826,14.149989628724633,-43.375
1772908546.3498113,7.019471557750975e-05,0.8531505477766195,-9.193108408673199,0.07203594948356015,1.5950407212904147,9.76166641701437,4.725193841997253e-05,-0.0010898068867269033,-0.001090830782496456,-2.615395478122826,14.149989628724633,-43.375
1772908546.3812075,7.019471557750975e-05,0.8531505477766195,-9.193108408673199,0.07154248630071092,1.5982259002615808,9.761108981907965,4.725193841997253e-05,-0.0010898068867269033,0.001090830782496456,-2.615395478122826,14.149989628724633,-43.375
1772908546.414993,7.019471557750975e-05,0.8531505477766195,-9.193108408673199,0.07121409206486969,1.6003456012861115,9.760738015071611,0.0,0.0,0.0,-2.1674767858855173,13.919175644866595,-42.875
1772908546.4475272,7.019471557750975e-05,0.8531505477766195,-9.193108408673199,0.07114045086544558,1.5984142667826409,9.76049114078599,-0.0010898068867269033,-4.725193841997253e-05,0.001090830782496456,-2.1674767858855173,13.919175644866595,-42.875
1772908546.467018,7.019471557750975e-05,0.8531505477766195,-9.193108408673199,0.07114045086544558,1.5984142667826409,9.76049114078599,-0.0010898068867269033,-4.725193841997253e-05,0.001090830782496456,-2.1674767858855173,13.919175644866595,-42.875
1772908546.5247862,7.019471557750975e-05,0.8531505477766195,-9.193108408673199,0.07443341532653872,1.5972738867411256,9.760326848706674,-0.0010425549483069308,-0.0011370588251468758,0.001090830782496456,-2.178306132466623,14.168940985241568,-42.875
1772908546.56717,7.019471557750975e-05,0.8531505477766195,-9.193108408673199,0.07662484639057293,1.5965149765623767,9.760217514163152,-0.0010425549483069308,-0.0011370588251468758,-0.001090830782496456,-2.178306132466623,14.168940985241568,-42.875
1772908546.5986023,7.019471557750975e-05,0.8531505477766195,-9.193108408673199,0.07474124742711495,1.5958650288198775,9.760144753245784,0.0,0.0,-0.002181661564992912,-2.615395478122826,14.149989628724633,-42.5
1772908546.6375997,7.019471557750975e-05,0.8531505477766195,-9.193108408673199,0.07000086000530474,1.5986295662181953,9.75675121996075,-0.001231562701986821,0.0032221687217607376,-0.001090830782496456,-2.615395478122826,14.149989628724633,-42.5
1772908546.660538,7.019471557750975e-05,0.8531505477766195,-9.193108408673199,0.06684618512968721,1.6004693349748698,9.751147749760491,0.0009953030098869583,0.0022268657118737793,-0.002181661564992912,-1.545598179340976,15.447548390214475,-43.25
1772908546.6931403,7.019471557750975e-05,0.8531505477766195,-9.193108408673199,0.06489168573611544,1.5983517086741894,9.747418702937082,-0.0010898068867269033,-4.725193841997253e-05,-0.002181661564992912,-1.545598179340976,15.447548390214475,-43.25
1772908546.7290401,7.019471557750975e-05,0.8531505477766195,-9.193108408673199,0.06359098822288224,1.5969424520265223,9.751627287346926,4.725193841997253e-05,-0.0010898068867269033,0.001090830782496456,-1.8850508135148418,14.619567014124154,-42.5
1772908546.7480633,7.019471557750975e-05,0.8531505477766195,-9.193108408673199,0.06606736041425255,1.5961495089660522,9.754428053258708,-0.0010425549483069308,-0.0011370588251468758,0.0,-1.8850508135148418,14.619567014124154,-42.5
1772908546.7711885,7.019471557750975e-05,0.8531505477766195,-9.193108408673199,0.06606736041425255,1.5961495089660522,9.754428053258708,-0.0010425549483069308,-0.0011370588251468758,0.0,-1.8850508135148418,14.619567014124154,-42.5
1772908546.8041728,7.019471557750975e-05,0.8531505477766195,-9.193108408673199,0.06771535844471956,1.595621814217064,9.756291931686393,-0.0021796137734538066,-9.450387683994507e-05,-0.001090830782496456,-1.8850508135148418,14.619567014124154,-42.5
1772908546.844514,7.019471557750975e-05,0.8531505477766195,-9.193108408673199,0.06561501236409166,1.591783765903541,9.760877433666451,-0.0021796137734538066,-9.450387683994507e-05,-0.001090830782496456,-2.6505908545114205,14.961726984943295,-43.6875
1772908546.8805552,7.019471557750975e-05,0.8531505477766195,-9.193108408673199,0.06561501236409166,1.591783765903541,9.760877433666451,-0.0021796137734538066,-9.450387683994507e-05,-0.001090830782496456,-2.6505908545114205,14.961726984943295,-43.6875
1772908546.9192512,7.019471557750975e-05,0.8531505477766195,-9.193108408673199,0.06648413429785686,1.5910166838649804,9.75926961653666,-4.725193841997253e-05,0.0010898068867269033,0.001090830782496456,-2.1674767858855173,13.919175644866595,-41.6875
1772908546.966478,7.019471557750975e-05,0.8531505477766195,-9.193108408673199,0.06648413429785686,1.5910166838649804,9.75926961653666,-4.725193841997253e-05,0.0010898068867269033,0.001090830782496456,-2.1674767858855173,13.919175644866595,-41.6875
1772908546.9820817,7.019471557750975e-05,0.8531505477766195,-9.193108408673199,0.06799271680858887,1.5922059764497138,9.756168826256745,-0.0011843107635668483,0.002132361835033834,0.0,-2.1674767858855173,13.919175644866595,-41.6875
1772908547.0130534,7.019471557750975e-05,0.8531505477766195,-9.193108408673199,0.06799271680858887,1.5922059764497138,9.756168826256745,-0.0011843107635668483,0.002132361835033834,0.0,-2.1674767858855173,13.919175644866595,-41.6875
1772908547.0354266,7.019471557750975e-05,0.8531505477766195,-9.193108408673199,0.06899666161751018,1.5929974373795854,9.75410528496356,4.725193841997253e-05,-0.0010898068867269033,0.001090830782496456,-2.178306132466623,14.168940985241568,-42.5
1772908547.070518,7.019471557750975e-05,0.8531505477766195,-9.193108408673199,0.069664775673049,1.593524145787217,9.75607713299153,-4.725193841997253e-05,0.0010898068867269033,-0.003272492347489368,-2.178306132466623,14.168940985241568,-42.5
1772908547.103734,7.019471557750975e-05,0.8531505477766195,-9.193108408673199,0.07010939811368705,1.5938746643487773,9.75738937582716,-0.0011843107635668483,0.002132361835033834,0.0,-1.8552701104168003,13.932712328092977,-43.6875
1772908547.1180356,7.019471557750975e-05,0.8531505477766195,-9.193108408673199,0.07040528938117359,1.594107930535947,9.754917547068239,-0.0020851098966138616,-0.0022741176502937516,0.0,-1.8552701104168003,13.932712328092977,-43.6875
1772908547.1377664,7.019471557750975e-05,0.8531505477766195,-9.193108408673199,0.07074710321048813,1.5909211947210704,9.753272572641313,-0.0010898068867269033,-4.725193841997253e-05,0.001090830782496456,-1.8552701104168003,13.932712328092977,-43.6875
1772908547.1513867,7.019471557750975e-05,0.8531505477766195,-9.193108408673199,0.07074710321048813,1.5909211947210704,9.753272572641313,-0.0010898068867269033,-4.725193841997253e-05,0.001090830782496456,-1.8552701104168003,13.932712328092977,-43.6875
1772908547.1733692,7.019471557750975e-05,0.8531505477766195,-9.193108408673199,0.07097457649558632,1.5888004576344417,9.755522972243082,-0.0010898068867269033,-4.725193841997253e-05,-0.001090830782496456,-2.1972574889835585,14.606030330897772,-44.0625
1772908547.1960976,7.019471557750975e-05,0.8531505477766195,-9.193108408673199,0.07098105592965176,1.5907311026501596,9.760365699746767,-0.0011370588251468758,0.0010425549483069308,-0.001090830782496456,-2.1972574889835585,14.606030330897772,-44.0625
1772908547.2269576,7.019471557750975e-05,0.8531505477766195,-9.193108408673199,0.070840466424518,1.5953578971980855,9.763588480803659,-4.725193841997253e-05,0.0010898068867269033,0.0,-2.1972574889835585,14.606030330897772,-44.0625
1772908547.2530835,7.019471557750975e-05,0.8531505477766195,-9.193108408673199,0.07074690567933911,1.5984369772850486,9.765733205596197,-0.0010425549483069308,-0.0011370588251468758,0.001090830782496456,-2.8651608184977997,14.139160282143527,-43.25
1772908547.27061,7.019471557750975e-05,0.8531505477766195,-9.193108408673199,0.07068464204856459,1.6004860706873445,9.760470272572848,-9.450387683994507e-05,0.0021796137734538066,0.0,-2.8651608184977997,14.139160282143527,-43.25
1772908547.301078,7.019471557750975e-05,0.8531505477766195,-9.193108408673199,0.07068464204856459,1.6004860706873445,9.760470272572848,-9.450387683994507e-05,0.0021796137734538066,0.0,-2.8651608184977997,14.139160282143527,-43.25
1772908547.3355322,7.019471557750975e-05,0.8531505477766195,-9.193108408673199,0.07100186458782151,1.593849223828031,9.754637025964094,-0.0001417558152599176,0.0032694206601807103,-0.001090830782496456,-2.1674767858855173,13.919175644866595,-42.5
1772908547.3599017,7.019471557750975e-05,0.8531505477766195,-9.193108408673199,0.07100186458782151,1.593849223828031,9.754637025964094,-0.0001417558152599176,0.0032694206601807103,-0.001090830782496456,-2.1674767858855173,13.919175644866595,-42.5
1772908547.3871057,7.019471557750975e-05,0.8531505477766195,-9.193108408673199,0.07128901884245492,1.587407056440212,9.75643100068745,0.0010425549483069308,0.0011370588251468758,0.0,-2.1674767858855173,13.919175644866595,-42.5
1772908547.4034235,7.019471557750975e-05,0.8531505477766195,-9.193108408673199,0.07133521529506595,1.5864618378640274,9.757624870825833,0.0,0.0,0.0,-1.8660994569979064,14.18247766846795,-42.5
1772908547.4287264,7.019471557750975e-05,0.8531505477766195,-9.193108408673199,0.07133521529506595,1.5864618378640274,9.757624870825833,0.0,0.0,0.0,-1.8660994569979064,14.18247766846795,-42.5
1772908547.4480722,7.019471557750975e-05,0.8531505477766195,-9.193108408673199,0.07136595851823041,1.5858328054603594,9.758419378066522,-9.450387683994507e-05,0.0021796137734538066,-0.001090830782496456,-1.8660994569979064,14.18247766846795,-42.5
1772908547.4671934,7.019471557750975e-05,0.8531505477766195,-9.193108408673199,0.06789954443701403,1.5886112617830304,9.758948113759974,0.0010425549483069308,0.0011370588251468758,0.0,-1.8660994569979064,14.18247766846795,-42.5
1772908547.4807625,7.019471557750975e-05,0.8531505477766195,-9.193108408673199,0.06789954443701403,1.5886112617830304,9.758948113759974,0.0010425549483069308,0.0011370588251468758,0.0,-1.8660994569979064,14.18247766846795,-42.5
1772908547.5029125,7.019471557750975e-05,0.8531505477766195,-9.193108408673199,0.065592684588347,1.5904602934283771,9.759299981457602,0.0031749167833407654,0.0023213695887137242,0.0,-2.2135015088552175,14.980678341460232,-42.875
1772908547.5458515,7.019471557750975e-05,0.8531505477766195,-9.193108408673199,0.06739946698505579,1.5918357048294427,9.759534145479753,-4.725193841997253e-05,0.0010898068867269033,0.001090830782496456,-2.2135015088552175,14.980678341460232,-42.875
1772908547.5661185,7.019471557750975e-05,0.8531505477766195,-9.193108408673199,0.06739946698505579,1.5918357048294427,9.759534145479753,-4.725193841997253e-05,0.0010898068867269033,0.001090830782496456,-2.2135015088552175,14.980678341460232,-42.875
1772908547.5971334,7.019471557750975e-05,0.8531505477766195,-9.193108408673199,0.07208873383979174,1.5895539553919404,9.759689979020711,4.725193841997253e-05,-0.0010898068867269033,0.0,-1.8552701104168003,13.932712328092977,-41.375
1772908547.617559,7.019471557750975e-05,0.8531505477766195,-9.193108408673199,0.07186741669239177,1.5878905751339696,9.759793684501444,0.002132361835033834,0.0011843107635668485,0.0,-1.8552701104168003,13.932712328092977,-41.375
1772908547.6410785,7.019471557750975e-05,0.8531505477766195,-9.193108408673199,0.07186741669239177,1.5878905751339696,9.759793684501444,0.002132361835033834,0.0011843107635668485,0.0,-1.8552701104168003,13.932712328092977,-41.375
1772908547.671959,7.019471557750975e-05,0.8531505477766195,-9.193108408673199,0.07157523110694726,1.5901255860101489,9.766552922755045,0.0010425549483069308,0.0011370588251468758,0.001090830782496456,-1.9202461899034362,15.431304370342817,-42.875
1772908547.6864045,7.019471557750975e-05,0.8531505477766195,-9.193108408673199,0.06803881300707708,1.5914680592854147,9.771051120307177,0.0011843107635668483,-0.002132361835033834,-0.003272492347489368,-1.9202461899034362,15.431304370342817,-42.875
1772908547.7039108,7.019471557750975e-05,0.8531505477766195,-9.193108408673199,0.062343394409308354,1.5922165587575705,9.767354397115325,4.725193841997253e-05,-0.0010898068867269033,0.0,-1.9202461899034362,15.431304370342817,-42.875
1772908547.7189548,7.019471557750975e-05,0.8531505477766195,-9.193108408673199,0.062343394409308354,1.5922165587575705,9.767354397115325,4.725193841997253e-05,-0.0010898068867269033,0.0,-1.9202461899034362,15.431304370342817,-42.875
1772908547.741258,7.019471557750975e-05,0.8531505477766195,-9.193108408673199,0.05869805845061201,1.5893727049383193,9.76154915741893,0.0010898068867269033,4.725193841997253e-05,-0.001090830782496456,-2.1972574889835585,14.606030330897772,-43.375
1772908547.7592928,7.019471557750975e-05,0.8531505477766195,-9.193108408673199,0.05946919845172983,1.5909670253423445,9.761030946957076,0.0009953030098869583,0.0022268657118737793,-0.002181661564992912,-2.1972574889835585,14.606030330897772,-43.375
1772908547.773765,7.019471557750975e-05,0.8531505477766195,-9.193108408673199,0.06666632722164297,1.5923178307537462,9.764031195390821,0.0,0.0,0.0,-2.1972574889835585,14.606030330897772,-43.375
1772908547.7998226,7.019471557750975e-05,0.8531505477766195,-9.193108408673199,0.07145593602082397,1.5932167766655487,9.766027827208507,0.0010425549483069308,0.0011370588251468758,0.0,-2.178306132466623,14.168940985241568,-43.375
1772908547.8288658,7.019471557750975e-05,0.8531505477766195,-9.193108408673199,0.07130139531655917,1.5936701136318452,9.764011451672019,0.0009953030098869583,0.0022268657118737793,-0.001090830782496456,-2.178306132466623,14.168940985241568,-43.375
1772908547.8533273,7.019471557750975e-05,0.8531505477766195,-9.193108408673199,0.07130139531655917,1.5936701136318452,9.764011451672019,0.0009953030098869583,0.0022268657118737793,-0.001090830782496456,-2.178306132466623,14.168940985241568,-43.375
1772908547.8876886,7.019471557750975e-05,0.8531505477766195,-9.193108408673199,0.06800147984364432,1.5904849309660019,9.759324464569557,0.0021796137734538066,9.450387683994507e-05,-0.003272492347489368,-1.8660994569979064,14.18247766846795,-42.5
1772908547.9265647,7.019471557750975e-05,0.8531505477766195,-9.193108408673199,0.06566052146276635,1.5917071993393885,9.756205327009946,0.0009953030098869583,0.0022268657118737793,-0.001090830782496456,-1.8660994569979064,14.18247766846795,-42.5
1772908547.9451878,7.019471557750975e-05,0.8531505477766195,-9.193108408673199,0.06410263981051063,1.592520605288245,9.754129575807074,-0.0010898068867269033,-4.725193841997253e-05,-0.002181661564992912,-2.1972574889835585,14.606030330897772,-43.375
1772908547.9652867,7.019471557750975e-05,0.8531505477766195,-9.193108408673199,0.06410263981051063,1.592520605288245,9.754129575807074,-0.0010898068867269033,-4.725193841997253e-05,-0.002181661564992912,-2.1972574889835585,14.606030330897772,-43.375
1772908547.9857178,7.019471557750975e-05,0.8531505477766195,-9.193108408673199,0.06571791139862901,1.593567056827217,9.755173999169882,4.725193841997253e-05,-0.0010898068867269033,0.0,-2.1972574889835585,14.606030330897772,-43.375
1772908548.0114985,7.019471557750975e-05,0.8531505477766195,-9.193108408673199,0.06571791139862901,1.593567056827217,9.755173999169882,4.725193841997253e-05,-0.0010898068867269033,0.0,-2.1972574889835585,14.606030330897772,-43.375
1772908548.0327847,7.019471557750975e-05,0.8531505477766195,-9.193108408673199,0.06733790253229906,1.5972451930232334,9.756788350357517,-4.725193841997253e-05,0.0010898068867269033,0.0,-2.178306132466623,14.168940985241568,-43.25
1772908548.079229,7.019471557750975e-05,0.8531505477766195,-9.193108408673199,0.06856089003139407,1.596350979717525,9.757862683039406,0.0,0.0,0.0,-2.178306132466623,14.168940985241568,-43.25
1772908548.1022713,7.019471557750975e-05,0.8531505477766195,-9.193108408673199,0.06603280269369255,1.5956109892554688,9.75857763943812,0.0,0.0,-0.002181661564992912,-3.321201520670938,14.557298271282795,-42.5
1772908548.1528177,7.019471557750975e-05,0.8531505477766195,-9.193108408673199,0.06435038881103815,1.5951185338692058,9.755708323227557,-0.0012788146404067934,0.0043119756084876405,0.001090830782496456,-3.321201520670938,14.557298271282795,-42.5
1772908548.1718104,7.019471557750975e-05,0.8531505477766195,-9.193108408673199,0.06435038881103815,1.5951185338692058,9.755708323227557,-0.0012788146404067934,0.0043119756084876405,0.001090830782496456,-3.321201520670938,14.557298271282795,-42.5
1772908548.2083216,7.019471557750975e-05,0.8531505477766195,-9.193108408673199,0.0665727330226099,1.594935711806859,9.753798825341791,0.0011370588251468758,-0.0010425549483069308,0.0,-2.6343468346397616,14.587078974380836,-42.5
1772908548.2300932,7.019471557750975e-05,0.8531505477766195,-9.193108408673199,0.06805167827019944,1.5948140457666236,9.752528075829302,0.001231562701986821,-0.0032221687217607376,-0.001090830782496456,-2.6343468346397616,14.587078974380836,-42.5
1772908548.2442405,7.019471557750975e-05,0.8531505477766195,-9.193108408673199,0.06903589981156934,1.5947330783759455,9.751682406223942,-0.0021796137734538066,-9.450387683994507e-05,-0.003272492347489368,-2.6343468346397616,14.587078974380836,-42.5
1772908548.264861,7.019471557750975e-05,0.8531505477766195,-9.193108408673199,0.06903589981156934,1.5947330783759455,9.751682406223942,-0.0021796137734538066,-9.450387683994507e-05,-0.003272492347489368,-2.6343468346397616,14.587078974380836,-42.5
1772908548.2844884,7.019471557750975e-05,0.8531505477766195,-9.193108408673199,0.06983578974900034,1.5913372236252306,9.751119622548325,0.0021796137734538066,9.450387683994507e-05,0.0,-2.884112175014735,14.57624962779973,-43.6875
1772908548.3071969,7.019471557750975e-05,0.8531505477766195,-9.193108408673199,0.07036810756700457,1.589077320222813,9.754090208006227,4.725193841997253e-05,-0.0010898068867269033,-0.001090830782496456,-2.884112175014735,14.57624962779973,-43.6875
1772908548.3367572,7.019471557750975e-05,0.8531505477766195,-9.193108408673199,0.07036810756700457,1.589077320222813,9.754090208006227,4.725193841997253e-05,-0.0010898068867269033,-0.001090830782496456,-2.884112175014735,14.57624962779973,-43.6875
1772908548.3581157,7.019471557750975e-05,0.8531505477766195,-9.193108408673199,0.07057745763238245,1.5909153516099628,9.756067099444847,-0.0009953030098869583,-0.0022268657118737793,0.0,-1.8850508135148418,14.619567014124154,-42.1875
1772908548.382242,7.019471557750975e-05,0.8531505477766195,-9.193108408673199,0.07057187626617364,1.5954805128226388,9.757382698613924,0.0011370588251468758,-0.0010425549483069308,-0.001090830782496456,-1.8850508135148418,14.619567014124154,-42.1875
1772908548.4005506,7.019471557750975e-05,0.8531505477766195,-9.193108408673199,0.07057187626617364,1.5954805128226388,9.757382698613924,0.0011370588251468758,-0.0010425549483069308,-0.001090830782496456,-1.8850508135148418,14.619567014124154,-42.1875
1772908548.4191875,7.019471557750975e-05,0.8531505477766195,-9.193108408673199,0.07056816192930963,1.5985185766134826,9.758258215164739,-4.725193841997253e-05,0.0010898068867269033,-0.002181661564992912,-1.8552701104168003,13.932712328092977,-43.6875
1772908548.4333608,7.019471557750975e-05,0.8531505477766195,-9.193108408673199,0.0705656900796185,1.6005403741288928,9.768876196771103,0.0,0.0,0.001090830782496456,-1.8552701104168003,13.932712328092977,-43.6875
1772908548.47897,7.019471557750975e-05,0.8531505477766195,-9.193108408673199,0.0705656900796185,1.6005403741288928,9.768876196771103,0.0,0.0,0.001090830782496456,-1.8552701104168003,13.932712328092977,-43.6875
1772908548.5065544,7.019471557750975e-05,0.8531505477766195,-9.193108408673199,0.06722207323457768,1.6017409562943161,9.775942344919512,0.0010425549483069308,0.0011370588251468758,0.001090830782496456,-2.178306132466623,14.168940985241568,-42.875
1772908548.5410993,7.019471557750975e-05,0.8531505477766195,-9.193108408673199,0.06848380692765857,1.5993428599534643,9.767264340748955,-4.725193841997253e-05,0.0010898068867269033,0.0,-2.178306132466623,14.168940985241568,-42.875
1772908548.5674763,7.019471557750975e-05,0.8531505477766195,-9.193108408673199,0.06848380692765857,1.5993428599534643,9.767264340748955,-4.725193841997253e-05,0.0010898068867269033,0.0,-2.178306132466623,14.168940985241568,-42.875
1772908548.607961,7.019471557750975e-05,0.8531505477766195,-9.193108408673199,0.07281034995872304,1.5945498832665592,9.761489225913108,0.0011843107635668483,-0.002132361835033834,-0.001090830782496456,-2.884112175014735,14.57624962779973,-43.375
1772908548.6402645,7.019471557750975e-05,0.8531505477766195,-9.193108408673199,0.07554471451911973,1.5947021826791654,9.757645951502111,-4.725193841997253e-05,0.0010898068867269033,-0.001090830782496456,-2.884112175014735,14.57624962779973,-43.375
1772908548.6662297,7.019471557750975e-05,0.8531505477766195,-9.193108408673199,0.07402243173252644,1.594658634740835,9.7584334070211,0.0022741176502937516,-0.0020851098966138616,0.0,-1.4914514464354462,14.198721688339608,-43.375
1772908548.6806638,7.019471557750975e-05,0.8531505477766195,-9.193108408673199,0.07286446804693728,1.597971625931022,9.758957449872533,0.0011843107635668483,-0.002132361835033834,-0.002181661564992912,-1.4914514464354462,14.198721688339608,-43.375
1772908548.7090106,7.019471557750975e-05,0.8531505477766195,-9.193108408673199,0.07286446804693728,1.597971625931022,9.758957449872533,0.0011843107635668483,-0.002132361835033834,-0.002181661564992912,-1.4914514464354462,14.198721688339608,-43.375
1772908548.7344985,7.019471557750975e-05,0.8531505477766195,-9.193108408673199,0.0720938561494796,1.6001763845595547,9.762651306243537,-0.0011370588251468758,0.0010425549483069308,0.001090830782496456,-1.4914514464354462,14.198721688339608,-43.375
1772908548.7520664,7.019471557750975e-05,0.8531505477766195,-9.193108408673199,0.0720938561494796,1.6001763845595547,9.762651306243537,-0.0011370588251468758,0.0010425549483069308,0.001090830782496456,-1.4914514464354462,14.198721688339608,-43.375
1772908548.7765918,7.019471557750975e-05,0.8531505477766195,-9.193108408673199,0.06489707882665295,1.6013538238058271,9.761764414688043,0.0022268657118737793,-0.0009953030098869583,0.0,-3.337445540542597,14.931946281845255,-42.875
1772908548.86824,7.019471557750975e-05,0.8531505477766195,-9.193108408673199,0.06040730175923388,1.599461784966638,9.760781415828763,-0.0010898068867269033,-4.725193841997253e-05,0.0,-2.6045661315417203,13.900224288349659,-43.6875
1772908548.925996,7.019471557750975e-05,0.8531505477766195,-9.193108408673199,0.0639486526368026,1.5978260968949065,9.760520023505055,0.0,0.0,0.0,-2.6045661315417203,13.900224288349659,-43.6875
1772908548.9417782,7.019471557750975e-05,0.8531505477766195,-9.193108408673199,0.0639486526368026,1.5978260968949065,9.760520023505055,0.0,0.0,0.0,-2.6045661315417203,13.900224288349659,-43.6875
1772908548.963971,7.019471557750975e-05,0.8531505477766195,-9.193108408673199,0.06296341022965951,1.5965926632588778,9.76034606983357,4.725193841997253e-05,-0.0010898068867269033,0.001090830782496456,85.37656165187741,-2031.1457220699363,-43.375
1772908548.9804156,7.019471557750975e-05,0.8531505477766195,-9.193108408673199,0.06230774241358458,1.5957718269524572,9.760230305608388,9.450387683994507e-05,-0.0021796137734538066,-0.001090830782496456,85.37656165187741,-2031.1457220699363,-43.375
1772908549.0112588,7.019471557750975e-05,0.8531505477766195,-9.193108408673199,0.06230774241358458,1.5957718269524572,9.760230305608388,9.450387683994507e-05,-0.0021796137734538066,-0.001090830782496456,85.37656165187741,-2031.1457220699363,-43.375
1772908549.0358794,7.019471557750975e-05,0.8531505477766195,-9.193108408673199,0.058384529453468115,1.5984226399204362,9.7601532658097,0.001231562701986821,-0.0032221687217607376,0.001090830782496456,-3.6471174716184214,13.417110219723755,-42.5
