timestamp,yaw,pitch,roll,ax,ay,az,gx,gy,gz,mx,my,mz
1772748042.8543308,-0.10035959462774191,1.6406307239758893,-7.0007208225902176,-0.27313437442933847,-1.1848565171593566,9.758674360890131,0.0,0.0,0.0,9.25,58.5,-93.75
1772748043.1267102,-0.10035959462774191,1.6406307239758893,-7.0007208225902176,-0.27092378984823956,-1.1814313545974664,9.766662010021333,-0.001090830782496456,0.004363323129985824,-0.002181661564992912,8.5,58.5,-94.5625
1772748043.4467926,-0.10035959462774191,1.6406307239758893,-7.0007208225902176,-0.2738743277079423,-1.1877882973509761,9.770570647691,-0.002181661564992912,-0.001090830782496456,0.0,8.0625,58.5625,-93.75
1772748043.46669,-0.10035959462774191,1.6406307239758893,-7.0007208225902176,-0.27257832181055935,-1.1851830248860926,9.770379759663808,0.001090830782496456,-0.001090830782496456,0.001090830782496456,7.75,59.6875,-94.5625
1772748043.484886,-0.10035959462774191,1.6406307239758893,-7.0007208225902176,-0.27257832181055935,-1.1851830248860926,9.770379759663808,0.001090830782496456,-0.001090830782496456,0.001090830782496456,7.75,59.6875,-94.5625
1772748043.5131314,-0.10035959462774191,1.6406307239758893,-7.0007208225902176,-0.27506095607050485,-1.1867943568708323,9.77359783752139,-0.001090830782496456,-0.002181661564992912,0.002181661564992912,7.75,59.6875,-94.5625
1772748043.557259,-0.10035959462774191,1.6406307239758893,-7.0007208225902176,-0.27671312143765675,-1.1878666803069189,9.775739432387326,-0.001090830782496456,-0.001090830782496456,0.001090830782496456,10.0,59.375,-93.5
1772748043.5978944,-0.10035959462774191,1.6406307239758893,-7.0007208225902176,-0.2778126190335999,-1.1952705229896357,9.770474416432785,-0.001090830782496456,0.0,-0.001090830782496456,10.0,59.375,-93.5
1772748043.6284912,-0.10035959462774191,1.6406307239758893,-7.0007208225902176,-0.2751992106941878,-1.1968525858813224,9.766970607129121,-0.001090830782496456,0.0,-0.001090830782496456,10.0,59.375,-93.5
1772748043.6823852,-0.10035959462774191,1.6406307239758893,-7.0007208225902176,-0.273460016637993,-1.1979054310629393,9.764638861177646,0.0,0.001090830782496456,-0.002181661564992912,8.5,59.0,-93.75
1772748043.7099469,2.869786858718879e-06,1.640583816457155,-7.0005211343152105,-0.27021441954132436,-1.1923910023394804,9.766432222001567,-0.0010908291090962802,-1.9107040708508487e-06,-0.001090830782496456,8.5,59.0,-93.75
1772748043.7578855,2.869786858718879e-06,1.640583816457155,-7.0005211343152105,-0.27021441954132436,-1.1923910023394804,9.766432222001567,-0.0010908291090962802,-1.9107040708508487e-06,-0.001090830782496456,8.5,59.0,-93.75
1772748043.7908044,2.869786858718879e-06,1.640583816457155,-7.0005211343152105,-0.2694511563685517,-1.1884036695516091,9.764280571889415,-0.0010889184050254293,-0.001092739813167131,-0.003272492347489368,7.647409774461577,58.57598509621046,-94.5625
1772748043.8098235,2.869786858718879e-06,1.640583816457155,-7.0005211343152105,-0.26894321325327986,-1.1857501441227065,9.766193784482605,0.0010889184050254293,0.001092739813167131,0.0,7.647409774461577,58.57598509621046,-94.5625
1772748043.8336422,2.869786858718879e-06,1.640583816457155,-7.0005211343152105,-0.26894321325327986,-1.1857501441227065,9.766193784482605,0.0010889184050254293,0.001092739813167131,0.0,7.647409774461577,58.57598509621046,-94.5625
1772748043.8536615,2.869786858718879e-06,1.640583816457155,-7.0005211343152105,-0.26894321325327986,-1.1857501441227065,9.766193784482605,0.0010889184050254293,0.001092739813167131,0.0,7.647409774461577,58.57598509621046,-94.5625
1772748043.9503925,2.869786858718879e-06,1.640583816457155,-7.0005211343152105,-0.2683763279759256,-1.1850352025627882,9.768314320849214,0.0010946505172379818,-0.0021797475141217093,0.0,8.39664229696226,59.014798128408984,-93.5
1772748044.0004058,2.869786858718879e-06,1.640583816457155,-7.0005211343152105,-0.2682220676519994,-1.1868535735456045,9.768878199355422,-0.0010908291090962802,-1.9107040708508487e-06,0.001090830782496456,8.39664229696226,59.014798128408984,-93.5
1772748044.0184693,2.869786858718879e-06,1.640583816457155,-7.0005211343152105,-0.2682220676519994,-1.1868535735456045,9.768878199355422,-0.0010908291090962802,-1.9107040708508487e-06,0.001090830782496456,8.39664229696226,59.014798128408984,-93.5
1772748044.0346348,2.869786858718879e-06,1.640583816457155,-7.0005211343152105,-0.26811940912962734,-1.1880636791221337,9.769253454202367,-0.0010889184050254293,-0.001092739813167131,-0.001090830782496456,7.397410157976647,58.575547195093826,-93.75
1772748044.0535476,2.869786858718879e-06,1.640583816457155,-7.0005211343152105,-0.2680510910297595,-1.1888689908655488,9.769503182111139,5.732112212552546e-06,-0.0032724873272888403,0.001090830782496456,7.397410157976647,58.575547195093826,-93.75
1772748044.066535,2.869786858718879e-06,1.640583816457155,-7.0005211343152105,-0.2680056260974606,-1.1894049168348702,9.773014484952101,0.0010946505172379818,-0.0021797475141217093,-0.001090830782496456,7.397410157976647,58.575547195093826,-93.75
1772748044.085619,2.869786858718879e-06,1.640583816457155,-7.0005211343152105,-0.2680056260974606,-1.1894049168348702,9.773014484952101,0.0010946505172379818,-0.0021797475141217093,-0.001090830782496456,7.397410157976647,58.575547195093826,-93.75
1772748044.1163447,2.869786858718879e-06,1.640583816457155,-7.0005211343152105,-0.26797536969289226,-1.189761569580768,9.77200610606162,1.9107040708508487e-06,-0.0010908291090962802,0.001090830782496456,7.958486116438682,59.38903122618227,-93.5
1772748044.1593025,2.869786858718879e-06,1.640583816457155,-7.0005211343152105,-0.2679552343936382,-1.1899989179990909,9.774680152881654,-0.0010908291090962802,-1.9107040708508487e-06,0.001090830782496456,7.958486116438682,59.38903122618227,-93.5
1772748044.199045,2.869786858718879e-06,1.640583816457155,-7.0005211343152105,-0.2679418345769107,-1.1901568707201293,9.776459701169326,-0.0010946505172379818,0.0021797475141217093,0.0,7.396643831022539,59.01304652394245,-94.25
1772748044.2501905,2.869786858718879e-06,1.640583816457155,-7.0005211343152105,-0.26458781057284797,-1.1902561271789251,9.777643970675916,-0.0021835689222634114,0.0010870077009545783,0.002181661564992912,7.396643831022539,59.01304652394245,-94.25
1772748044.2948093,2.869786858718879e-06,1.640583816457155,-7.0005211343152105,-0.2623557450650472,-1.1903221812434865,9.778432088803394,-0.001092739813167131,0.0010889184050254291,-0.001090830782496456,7.646643447507469,59.01348442505908,-93.875
1772748044.311405,2.869786858718879e-06,1.640583816457155,-7.0005211343152105,-0.2608703304034113,-1.1903661394855798,9.778956572613374,-0.0010889184050254293,-0.001092739813167131,0.0,7.646643447507469,59.01348442505908,-93.875
1772748044.356375,2.869786858718879e-06,1.640583816457155,-7.0005211343152105,-0.2608703304034113,-1.1903661394855798,9.778956572613374,-0.0010889184050254293,-0.001092739813167131,0.0,7.646643447507469,59.01348442505908,-93.875
1772748044.4190211,2.869786858718879e-06,1.640583816457155,-7.0005211343152105,-0.263226910114978,-1.1904012525172547,9.779305610730049,-0.0021835689222634114,0.0010870077009545783,-0.001090830782496456,8.771641721689655,59.01545498008393,-94.25
1772748044.4421225,2.869786858718879e-06,1.640583816457155,-7.0005211343152105,-0.2647951875883054,-1.190424619847596,9.776192779990364,0.0,0.0,-0.001090830782496456,8.771641721689655,59.01545498008393,-94.25
1772748044.4899344,2.869786858718879e-06,1.640583816457155,-7.0005211343152105,-0.2647951875883054,-1.190424619847596,9.776192779990364,0.0,0.0,-0.001090830782496456,8.771641721689655,59.01545498008393,-94.25
1772748044.5216682,2.869786858718879e-06,1.640583816457155,-7.0005211343152105,-0.265844718040605,-1.1870950639691917,9.774121225905702,3.8214081417016975e-06,-0.0021816582181925603,-0.001090830782496456,9.460563845652269,58.20416045457865,-94.25
1772748044.5577104,2.869786858718879e-06,1.640583816457155,-7.0005211343152105,-0.26653730951997956,-1.1882243883014063,9.772742629803135,-5.732112212552546e-06,0.0032724873272888403,-0.001090830782496456,9.460563845652269,58.20416045457865,-94.25
1772748044.5987952,2.869786858718879e-06,1.640583816457155,-7.0005211343152105,-0.27034332798846594,-1.1889818003417232,9.771825189496804,-0.0010908291090962802,-1.9107040708508487e-06,0.0,7.646643447507469,59.01348442505908,-94.5625
1772748044.624854,2.869786858718879e-06,1.640583816457155,-7.0005211343152105,-0.27034332798846594,-1.1889818003417232,9.771825189496804,-0.0010908291090962802,-1.9107040708508487e-06,0.0,7.646643447507469,59.01348442505908,-94.5625
1772748044.6628056,2.869786858718879e-06,1.640583816457155,-7.0005211343152105,-0.2762212973389479,-1.1894917089063148,9.77455975492874,0.0032724873272888403,5.732112212552546e-06,0.0,7.646643447507469,59.01348442505908,-94.5625
1772748044.7004097,2.869786858718879e-06,1.640583816457155,-7.0005211343152105,-0.28012716096786616,-1.193176153935715,9.783069801091235,0.001092739813167131,-0.0010889184050254291,0.001090830782496456,8.772408048643761,58.57795565123531,-94.25
1772748044.7441263,2.869786858718879e-06,1.640583816457155,-7.0005211343152105,-0.2726911498544065,-1.1956105330070106,9.788733141748931,0.0010946505172379818,-0.0021797475141217093,0.001090830782496456,8.772408048643761,58.57795565123531,-94.25
1772748044.7668421,2.869786858718879e-06,1.640583816457155,-7.0005211343152105,-0.26774256752408593,-1.1972305850851614,9.782466696571008,0.001092739813167131,-0.0010889184050254291,0.001090830782496456,8.397408623916366,58.57729879956035,-93.5
1772748044.8081193,2.869786858718879e-06,1.640583816457155,-7.0005211343152105,-0.2711454137265847,-1.1949753236955023,9.77829644730588,0.0010889184050254293,0.001092739813167131,-0.001090830782496456,8.397408623916366,58.57729879956035,-93.5
1772748044.826472,2.869786858718879e-06,1.640583816457155,-7.0005211343152105,-0.2711454137265847,-1.1949753236955023,9.77829644730588,0.0010889184050254293,0.001092739813167131,-0.001090830782496456,8.397408623916366,58.57729879956035,-93.5
1772748044.8879902,2.869786858718879e-06,1.640583816457155,-7.0005211343152105,-0.2734099698620648,-1.1934744724336046,9.775521193004675,0.002185479626334262,-0.0021778368100508583,0.001090830782496456,8.397408623916366,58.57729879956035,-93.5
1772748044.9267836,2.869786858718879e-06,1.640583816457155,-7.0005211343152105,-0.27157775941036844,-1.1891247067960948,9.777019403976164,5.732112212552546e-06,-0.0032724873272888403,-0.002181661564992912,7.64598659583252,59.38848384978648,-95.0
1772748044.9625216,2.869786858718879e-06,1.640583816457155,-7.0005211343152105,-0.2703584438218964,-1.186229986354398,9.778016446641576,0.0010889184050254293,0.001092739813167131,0.0,7.64598659583252,59.38848384978648,-95.0
1772748044.9974413,2.869786858718879e-06,1.640583816457155,-7.0005211343152105,-0.2703584438218964,-1.186229986354398,9.778016446641576,0.0010889184050254293,0.001092739813167131,0.0,7.64598659583252,59.38848384978648,-95.0
1772748045.0127428,2.869786858718879e-06,1.640583816457155,-7.0005211343152105,-0.26954700291841577,-1.1843035822365946,9.77867996739771,0.0,0.0,-0.001090830782496456,8.771641721689655,59.01545498008393,-94.6875
1772748045.028806,2.869786858718879e-06,1.640583816457155,-7.0005211343152105,-0.26954700291841577,-1.1843035822365946,9.77867996739771,0.0,0.0,-0.001090830782496456,8.771641721689655,59.01545498008393,-94.6875
1772748045.0515542,2.869786858718879e-06,1.640583816457155,-7.0005211343152105,-0.272346245324647,-1.1863725477038647,9.782466644756227,0.002172104697838306,0.005457966953623102,-0.002181661564992912,8.771641721689655,59.01545498008393,-94.6875
1772748045.0855372,2.869786858718879e-06,1.640583816457155,-7.0005211343152105,-0.27086400330069105,-1.1877435617978667,9.784986636238362,-3.8214081417016975e-06,0.0021816582181925603,0.0,8.398065475591316,58.20229937483296,-94.25
1772748045.1271763,2.869786858718879e-06,1.640583816457155,-7.0005211343152105,-0.273222694367193,-1.1886618156748017,9.783318550712252,1.9107040708508487e-06,-0.0010908291090962802,-0.001090830782496456,8.398065475591316,58.20229937483296,-94.25
1772748045.1773243,2.869786858718879e-06,1.640583816457155,-7.0005211343152105,-0.2747923769236444,-1.189272903372334,9.782208458428363,3.8214081417016975e-06,-0.0021816582181925603,0.0,8.39598544528731,59.389797553136376,-93.5
1772748045.195855,2.869786858718879e-06,1.640583816457155,-7.0005211343152105,-0.27582526450524464,-1.1963697885601776,9.781469704413977,0.0021835689222634114,-0.0010870077009545783,-0.002181661564992912,8.39598544528731,59.389797553136376,-93.5
1772748045.2327144,2.869786858718879e-06,1.640583816457155,-7.0005211343152105,-0.27317925170218804,-1.194396613911245,9.780978071869828,-0.0010946505172379818,0.0021797475141217093,-0.001090830782496456,8.39598544528731,59.389797553136376,-93.5
1772748045.2678823,2.869786858718879e-06,1.640583816457155,-7.0005211343152105,-0.2714183597396536,-1.1930834882241856,9.777305784196272,-1.9107040708508487e-06,0.0010908291090962802,0.0,7.398067009651596,58.20054777036643,-93.0625
1772748045.2955115,2.869786858718879e-06,1.640583816457155,-7.0005211343152105,-0.27024650580903903,-1.1922096177480228,9.774861917771663,0.0010850969968837277,0.0032743980313596913,0.0,7.398067009651596,58.20054777036643,-93.0625
1772748045.31927,0.7704858629722315,0.3449232730905224,125.5293753185476,-0.2694725094212888,-1.1882829601321927,9.769890440258543,0.0021797475141217093,0.0010946505172379818,0.001090830782496456,7.398067009651596,58.20054777036643,-93.0625
1772748045.3456783,0.7704858629722315,0.3449232730905224,125.5293753185476,-0.2694725094212888,-1.1882829601321927,9.769890440258543,0.0021797475141217093,0.0010946505172379818,0.001090830782496456,7.398067009651596,58.20054777036643,-93.0625
1772748045.4140813,2.869786858718879e-06,1.640583816457155,-7.0005211343152105,-0.27418587716011483,-1.1839405519810675,9.764380232506468,0.001092739813167131,-0.0010889184050254291,0.001090830782496456,7.95990929506774,58.576532472606246,-95.5
1772748045.436443,2.869786858718879e-06,1.640583816457155,-7.0005211343152105,-0.27418587716011483,-1.1839405519810675,9.764380232506468,0.001092739813167131,-0.0010889184050254291,0.001090830782496456,7.95990929506774,58.576532472606246,-95.5
1772748045.4687119,2.869786858718879e-06,1.640583816457155,-7.0005211343152105,-0.27543922362548473,-1.1827858485484086,9.766260107509972,0.0010946505172379818,-0.0021797475141217093,0.0,8.773612276714502,57.89045670590175,-94.25
1772748045.5127668,2.869786858718879e-06,1.640583816457155,-7.0005211343152105,-0.2762615930721758,-1.1887076194642894,9.774201366739861,3.8214081417016975e-06,-0.0021816582181925603,0.0,8.773612276714502,57.89045670590175,-94.25
1772748045.535146,2.869786858718879e-06,1.640583816457155,-7.0005211343152105,-0.27680887075248006,-1.1926484918582927,9.772795962633037,0.0010889184050254293,0.001092739813167131,0.001090830782496456,9.459906993977318,58.57915987930605,-94.25
1772748045.5935838,2.869786858718879e-06,1.640583816457155,-7.0005211343152105,-0.2771730779352303,-1.1952710984140726,9.775205793606656,0.001092739813167131,-0.0010889184050254291,0.002181661564992912,9.459906993977318,58.57915987930605,-94.25
1772748045.610438,2.869786858718879e-06,1.640583816457155,-7.0005211343152105,-0.27407034717117346,-1.1970105544679017,9.776809509200024,0.0021835689222634114,-0.0010870077009545783,0.002181661564992912,9.459906993977318,58.57915987930605,-94.25
1772748045.641917,2.869786858718879e-06,1.640583816457155,-7.0005211343152105,-0.2720055145074672,-1.1981681430407278,9.777876764012733,-0.0021778368100508587,-0.002185479626334262,-0.001090830782496456,8.39664229696226,59.014798128408984,-94.5625
1772748045.684355,2.869786858718879e-06,1.640583816457155,-7.0005211343152105,-0.2720055145074672,-1.1981681430407278,9.777876764012733,-0.0021778368100508587,-0.002185479626334262,-0.001090830782496456,8.39664229696226,59.014798128408984,-94.5625
1772748045.7080417,2.869786858718879e-06,1.640583816457155,-7.0005211343152105,-0.27398235732378684,-1.195599258041723,9.781932121875894,1.9107040708508487e-06,-0.0010908291090962802,-0.001090830782496456,8.39664229696226,59.014798128408984,-94.5625
1772748045.7363508,2.869786858718879e-06,1.640583816457155,-7.0005211343152105,-0.27398235732378684,-1.195599258041723,9.781932121875894,1.9107040708508487e-06,-0.0010908291090962802,-0.001090830782496456,8.39664229696226,59.014798128408984,-94.5625
1772748045.7896535,2.869786858718879e-06,1.640583816457155,-7.0005211343152105,-0.275303783447874,-1.1905445871954947,9.784630917232512,0.0010965612213088326,-0.0032705766232179897,0.0,7.96111352313848,57.88903352727269,-94.5625
1772748045.830378,2.869786858718879e-06,1.640583816457155,-7.0005211343152105,-0.275303783447874,-1.1905445871954947,9.784630917232512,0.0010965612213088326,-0.0032705766232179897,0.0,7.96111352313848,57.88903352727269,-94.5625
1772748045.870759,2.869786858718879e-06,1.640583816457155,-7.0005211343152105,-0.27283807119644055,-1.1871749008990953,9.786426935394822,1.9107040708508487e-06,-0.0010908291090962802,-0.001090830782496456,9.146641146417048,59.016111831758884,-94.5625
1772748045.8878393,2.869786858718879e-06,1.640583816457155,-7.0005211343152105,-0.2711913079243147,-1.18827751888642,9.784277053711682,0.0,0.0,0.003272492347489368,9.146641146417048,59.016111831758884,-94.5625
1772748045.909006,2.869786858718879e-06,1.640583816457155,-7.0005211343152105,-0.27009540536226595,-1.1890112988399348,9.779501219759984,0.001092739813167131,-0.0010889184050254291,0.0,8.397408623916366,58.57729879956035,-93.0
1772748045.9536197,2.869786858718879e-06,1.640583816457155,-7.0005211343152105,-0.26602098787353984,-1.189493761889532,9.77632295561469,-0.0010870077009545785,-0.002183568922263411,0.0,8.397408623916366,58.57729879956035,-93.0
1772748045.9881842,2.869786858718879e-06,1.640583816457155,-7.0005211343152105,-0.26602098787353984,-1.189493761889532,9.77632295561469,-0.0010870077009545785,-0.002183568922263411,0.0,8.397408623916366,58.57729879956035,-93.0
1772748046.014957,2.869786858718879e-06,1.640583816457155,-7.0005211343152105,-0.26330364923641064,-1.19315994223529,9.774207856329534,0.0010889184050254293,0.001092739813167131,-0.001090830782496456,7.646643447507469,59.01348442505908,-93.875
1772748046.033821,2.869786858718879e-06,1.640583816457155,-7.0005211343152105,-0.26484039730377906,-1.1956056036140816,9.782835616504428,-0.0021778368100508587,-0.002185479626334262,-0.001090830782496456,7.646643447507469,59.01348442505908,-93.875
1772748046.0769784,2.869786858718879e-06,1.640583816457155,-7.0005211343152105,-0.26921405186433595,-1.1938939166787312,9.788577294522424,-1.9107040708508487e-06,0.0010908291090962802,-0.001090830782496456,7.958486116438682,59.38903122618227,-94.5625
1772748046.0929747,2.869786858718879e-06,1.640583816457155,-7.0005211343152105,-0.26921405186433595,-1.1938939166787312,9.788577294522424,-1.9107040708508487e-06,0.0010908291090962802,-0.001090830782496456,7.958486116438682,59.38903122618227,-94.5625
1772748046.1217668,2.869786858718879e-06,1.640583816457155,-7.0005211343152105,-0.2721246701174639,-1.1927548081440513,9.785708093690015,-0.0010908291090962802,-1.9107040708508487e-06,0.002181661564992912,7.958486116438682,59.38903122618227,-94.5625
1772748046.1362345,2.869786858718879e-06,1.640583816457155,-7.0005211343152105,-0.2721246701174639,-1.1927548081440513,9.785708093690015,-0.0010908291090962802,-1.9107040708508487e-06,0.002181661564992912,7.958486116438682,59.38903122618227,-94.5625
1772748046.1870053,2.869786858718879e-06,1.640583816457155,-7.0005211343152105,-0.271999729333223,-1.1948315082747067,9.77695672799158,-0.001092739813167131,0.0010889184050254291,0.0,7.959142968113632,59.01403180145488,-94.25
1772748046.2030525,2.869786858718879e-06,1.640583816457155,-7.0005211343152105,-0.271999729333223,-1.1948315082747067,9.77695672799158,-0.001092739813167131,0.0010889184050254291,0.0,7.959142968113632,59.01403180145488,-94.25
1772748046.235418,2.869786858718879e-06,1.640583816457155,-7.0005211343152105,-0.2739726480423443,-1.196723871453305,9.774629624766654,0.0010870077009545785,0.002183568922263411,-0.001090830782496456,9.146641146417048,59.016111831758884,-93.0
1772748046.26479,2.869786858718879e-06,1.640583816457155,-7.0005211343152105,-0.2739726480423443,-1.196723871453305,9.774629624766654,0.0010870077009545785,0.002183568922263411,-0.001090830782496456,9.146641146417048,59.016111831758884,-93.0
1772748046.363583,2.869786858718879e-06,1.640583816457155,-7.0005211343152105,-0.2761691191507352,-1.193250061440392,9.766479100655301,-1.9107040708508487e-06,0.0010908291090962802,-0.003272492347489368,8.39664229696226,59.014798128408984,-93.875
1772748046.3989828,2.869786858718879e-06,1.640583816457155,-7.0005211343152105,-0.2734080831276539,-1.192320470362663,9.767656880817126,5.732112212552546e-06,-0.0032724873272888403,0.001090830782496456,8.39664229696226,59.014798128408984,-93.875
1772748046.449493,2.869786858718879e-06,1.640583816457155,-7.0005211343152105,-0.2715706444970867,-1.1917018378846473,9.768440680358154,0.0,0.0,0.001090830782496456,8.771641721689655,59.01545498008393,-94.25
1772748046.4802268,2.869786858718879e-06,1.640583816457155,-7.0005211343152105,-0.27034199030137096,-1.194635251456822,9.768962290197093,-0.0021835689222634114,0.0010870077009545783,0.0,8.771641721689655,59.01545498008393,-94.25
1772748046.522134,2.869786858718879e-06,1.640583816457155,-7.0005211343152105,-0.27034199030137096,-1.194635251456822,9.768962290197093,-0.0021835689222634114,0.0010870077009545783,0.0,8.771641721689655,59.01545498008393,-94.25
1772748046.5736005,2.869786858718879e-06,1.640583816457155,-7.0005211343152105,-0.2689860532755696,-1.1945414355010013,9.776230647289395,0.0,0.0,0.002181661564992912,8.772408048643761,58.57795565123531,-94.5625
1772748046.637894,2.869786858718879e-06,1.640583816457155,-7.0005211343152105,-0.26863369234044226,-1.1898347587986888,9.774146426170201,0.0,0.0,-0.002181661564992912,9.146641146417048,59.016111831758884,-93.875
1772748046.6670027,2.869786858718879e-06,1.640583816457155,-7.0005211343152105,-0.26863369234044226,-1.1898347587986888,9.774146426170201,0.0,0.0,-0.002181661564992912,9.146641146417048,59.016111831758884,-93.875
1772748046.6913536,2.869786858718879e-06,1.640583816457155,-7.0005211343152105,-0.26839920007424456,-1.1867025180303237,9.779449623712292,-1.9107040708508487e-06,0.0010908291090962802,0.001090830782496456,9.146641146417048,59.016111831758884,-93.875
1772748046.7286975,2.869786858718879e-06,1.640583816457155,-7.0005211343152105,-0.26839920007424456,-1.1867025180303237,9.779449623712292,-1.9107040708508487e-06,0.0010908291090962802,0.001090830782496456,9.146641146417048,59.016111831758884,-93.875
1772748046.8002381,2.869786858718879e-06,1.640583816457155,-7.0005211343152105,-0.2682431480905402,-1.1846180467883984,9.779633730728635,-0.001092739813167131,0.0010889184050254291,0.0,8.398065475591316,58.20229937483296,-94.25
1772748046.8800998,2.869786858718879e-06,1.640583816457155,-7.0005211343152105,-0.268064326344116,-1.1856528000403967,9.779837788356573,-3.8214081417016975e-06,0.0021816582181925603,-0.002181661564992912,7.646643447507469,59.01348442505908,-93.875
1772748046.9318798,2.869786858718879e-06,1.640583816457155,-7.0005211343152105,-0.27135954062703316,-1.1872704370805445,9.779892049963323,0.0,0.0,0.0,7.646643447507469,59.01348442505908,-93.875
1772748046.9752033,2.869786858718879e-06,1.640583816457155,-7.0005211343152105,-0.27355246892235896,-1.188346956460573,9.779928160456471,0.0010908291090962802,1.9107040708508487e-06,0.0,8.773612276714502,57.89045670590175,-93.75
1772748046.995892,2.869786858718879e-06,1.640583816457155,-7.0005211343152105,-0.27355246892235896,-1.188346956460573,9.779928160456471,0.0010908291090962802,1.9107040708508487e-06,0.0,8.773612276714502,57.89045670590175,-93.75
1772748047.036351,2.869786858718879e-06,1.640583816457155,-7.0005211343152105,-0.2750118382062843,-1.189063368082473,9.77995219158628,-3.8214081417016975e-06,0.0021816582181925603,0.0,8.773612276714502,57.89045670590175,-93.75
1772748047.1048872,2.869786858718879e-06,1.640583816457155,-7.0005211343152105,-0.2759830321625135,-1.1895401320140049,9.776623072327405,0.0010908291090962802,1.9107040708508487e-06,-0.001090830782496456,9.148064325046105,58.20361307818286,-93.875
1772748047.1499443,2.869786858718879e-06,1.640583816457155,-7.0005211343152105,-0.26992741911478874,-1.1965359076108548,9.774407580649322,1.9107040708508487e-06,-0.0010908291090962802,0.001090830782496456,9.148064325046105,58.20361307818286,-93.875
1772748047.22172,2.869786858718879e-06,1.640583816457155,-7.0005211343152105,-0.2665724195370574,-1.197605421072805,9.775297120670558,0.0010908291090962802,1.9107040708508487e-06,0.0,8.398612851987107,57.8897998542268,-93.0
1772748047.2823398,2.869786858718879e-06,1.640583816457155,-7.0005211343152105,-0.2665724195370574,-1.197605421072805,9.775297120670558,0.0010908291090962802,1.9107040708508487e-06,0.0,8.398612851987107,57.8897998542268,-93.0
1772748047.312431,2.869786858718879e-06,1.640583816457155,-7.0005211343152105,-0.2670274460495179,-1.191873806969763,9.776870286340861,1.9107040708508487e-06,-0.0010908291090962802,0.0,7.958486116438682,59.38903122618227,-93.5
1772748047.3488438,2.869786858718879e-06,1.640583816457155,-7.0005211343152105,-0.2639792952222571,-1.1913987290736217,9.787952545642993,-1.9107040708508487e-06,0.0010908291090962802,-0.001090830782496456,7.958486116438682,59.38903122618227,-93.5
1772748047.3868504,2.869786858718879e-06,1.640583816457155,-7.0005211343152105,-0.2619507848967909,-1.1910825700407077,9.795327665411614,1.9107040708508487e-06,-0.0010908291090962802,0.0,7.959142968113632,59.01403180145488,-93.875
1772748047.4098222,2.869786858718879e-06,1.640583816457155,-7.0005211343152105,-0.26394594051085457,-1.1908780290486387,9.790200390110188,0.0010908291090962802,1.9107040708508487e-06,-0.002181661564992912,7.959142968113632,59.01403180145488,-93.875
1772748047.4308076,2.869786858718879e-06,1.640583816457155,-7.0005211343152105,-0.2652736942846654,-1.1907419093032894,9.786788245672506,1.9107040708508487e-06,-0.0010908291090962802,0.0,7.959142968113632,59.01403180145488,-93.875
1772748047.4493928,2.869786858718879e-06,1.640583816457155,-7.0005211343152105,-0.2652736942846654,-1.1907419093032894,9.786788245672506,1.9107040708508487e-06,-0.0010908291090962802,0.0,7.959142968113632,59.01403180145488,-93.875
1772748047.485757,2.869786858718879e-06,1.640583816457155,-7.0005211343152105,-0.26615729958915507,-1.1906513231333167,9.78451750166538,-5.732112212552546e-06,0.0032724873272888403,0.001090830782496456,8.773064900318712,58.20295622650791,-93.0
1772748047.515027,2.869786858718879e-06,1.640583816457155,-7.0005211343152105,-0.2634002224730585,-1.190585179736506,9.776316123479871,0.0,0.0,-0.001090830782496456,8.773064900318712,58.20295622650791,-93.0
1772748047.529454,2.869786858718879e-06,1.640583816457155,-7.0005211343152105,-0.2634002224730585,-1.190585179736506,9.776316123479871,0.0,0.0,-0.001090830782496456,8.773064900318712,58.20295622650791,-93.0
1772748047.59532,2.869786858718879e-06,1.640583816457155,-7.0005211343152105,-0.26156541845086567,-1.1905411620447985,9.770858197912812,-0.001092739813167131,0.0010889184050254291,0.001090830782496456,8.773612276714502,57.89045670590175,-93.5
1772748047.6359155,2.869786858718879e-06,1.640583816457155,-7.0005211343152105,-0.2636894834459166,-1.1905177280752848,9.770571121124277,1.9107040708508487e-06,-0.0010908291090962802,0.001090830782496456,8.773612276714502,57.89045670590175,-93.5
1772748047.669086,2.869786858718879e-06,1.640583816457155,-7.0005211343152105,-0.26510302497276234,-1.190502133030348,9.770380074728365,0.0010850969968837277,0.0032743980313596913,-0.002181661564992912,8.772408048643761,58.57795565123531,-94.5625
1772748047.6921735,2.869786858718879e-06,1.640583816457155,-7.0005211343152105,-0.26510302497276234,-1.190502133030348,9.770380074728365,0.0010850969968837277,0.0032743980313596913,-0.002181661564992912,8.772408048643761,58.57795565123531,-94.5625
1772748047.72229,2.869786858718879e-06,1.640583816457155,-7.0005211343152105,-0.2660320024433695,-1.1971819678535833,9.770252935486013,-0.0010831862928128767,-0.004365227140455971,-0.003272492347489368,8.772408048643761,58.57795565123531,-94.5625
1772748047.7566018,2.869786858718879e-06,1.640583816457155,-7.0005211343152105,-0.2566149068455511,-1.2016097453719794,9.766823214033147,-0.004365227140455972,0.0010831862928128767,0.002181661564992912,8.398612851987107,57.8897998542268,-93.0
1772748047.8090646,2.869786858718879e-06,1.640583816457155,-7.0005211343152105,-0.25037723148409147,-1.1878308489703746,9.764540772718764,0.004369048548597673,-0.003264844511005437,-0.008726646259971648,8.398612851987107,57.8897998542268,-93.0
1772748047.8393195,0.006985976461842779,1.6410108600625817,-7.000421499751397,-0.24622612821043946,-1.1786611473354645,9.763021833520583,-0.002187390330405113,0.0032686659191471386,-0.007635815477475192,7.960566146742689,58.201533047878854,-93.75
1772748047.884167,0.006985976461842779,1.6410108600625817,-7.000421499751397,-0.2300714704246053,-1.179225589230713,9.751975661329897,-0.005471341882119058,0.009807908461512267,-0.002181661564992912,7.960566146742689,58.201533047878854,-93.75
1772748047.9128432,2.869786858718879e-06,1.640583816457155,-7.0005211343152105,-0.26273679986050624,-1.2198186689792672,9.744624557130825,0.0032667552150762876,0.003278219439501393,-0.006544984694978736,7.95990929506774,58.576532472606246,-92.5625
1772748047.9331446,-0.006980234654666902,1.6401567607165997,-7.000620716788378,-0.22426329334156464,-1.246727442470581,9.743077591110875,-0.002193122442617665,0.006541153246435979,-0.00545415391248228,7.95990929506774,58.576532472606246,-92.5625
1772748047.969198,2.869786858718879e-06,1.640583816457155,-7.0005211343152105,-0.23222199722714507,-1.2011364988258195,9.742048102505342,0.002187390330405113,-0.0032686659191471386,0.00545415391248228,8.39664229696226,59.014798128408984,-93.75
1772748047.989299,2.869786858718879e-06,1.640583816457155,-7.0005211343152105,-0.23222199722714507,-1.2011364988258195,9.742048102505342,0.002187390330405113,-0.0032686659191471386,0.00545415391248228,8.39664229696226,59.014798128408984,-93.75
1772748048.008595,0.013969085318972342,1.6414378915233505,-7.000321813099116,-0.2375184257584511,-1.170796235114441,9.741362989338501,-0.0010850969968837277,-0.0032743980313596913,0.002181661564992912,8.39664229696226,59.014798128408984,-93.75
1772748048.02579,0.013969085318972342,1.6414378915233505,-7.000321813099116,-0.2510022884443025,-1.1941090919596071,9.740907054179184,-0.003278219439501393,0.003266755215076288,-0.008726646259971648,8.39664229696226,59.014798128408984,-93.75
1772748048.0393593,0.013969085318972342,1.6414378915233505,-7.000321813099116,-0.259975648437121,-1.2096235377683908,9.750638969545745,0.004367137844526823,-0.0021740154019091566,0.0,7.648614002532318,57.8884861508769,-94.25
1772748048.064393,0.020952196306934307,1.6418649108299324,-7.000222074360547,-0.2660000530868109,-1.1898422689649737,9.78387634416813,-0.0010850969968837277,-0.0032743980313596913,0.002181661564992912,7.648614002532318,57.8884861508769,-94.25
1772748048.0803792,0.020952196306934307,1.6418649108299324,-7.000222074360547,-0.2660000530868109,-1.1898422689649737,9.78387634416813,-0.0010850969968837277,-0.0032743980313596913,0.002181661564992912,7.648614002532318,57.8884861508769,-94.25
1772748048.0936756,0.0279353093744154,1.6422919179728015,-7.000122283537878,-0.27335433365988654,-1.1766839148601582,9.805995445693524,-0.0010908291090962802,-1.9107040708508487e-06,0.011999138607461015,7.648614002532318,57.8884861508769,-94.25
1772748048.1217005,0.0279353093744154,1.6422919179728015,-7.000122283537878,-0.2782133693529259,-1.1879978166461482,9.8173703489648,-0.005452234841410549,-0.0011003826294505342,0.001090830782496456,9.148064325046105,58.20361307818286,-93.5
1772748048.1453507,0.0279353093744154,1.6422919179728015,-7.000122283537878,-0.2782133693529259,-1.1879978166461482,9.8173703489648,-0.005452234841410549,-0.0011003826294505342,0.001090830782496456,9.148064325046105,58.20361307818286,-93.5
1772748048.1855838,0.0279353093744154,1.6422919179728015,-7.000122283537878,-0.28144700332765843,-1.1955270919001606,9.808214661489243,-0.006552617470861084,0.004351852211960015,0.007635815477475192,9.148064325046105,58.20361307818286,-93.5
1772748048.2004597,0.06983402857564036,1.6448537048585377,-6.999522444958277,-0.28356965405274664,-1.2172632733527722,9.7519449781402,0.007635803763673961,1.337492849595594e-05,0.003272492347489368,7.648614002532318,57.8884861508769,-93.5
1772748048.2282393,0.06983402857564036,1.6448537048585377,-6.999522444958277,-0.28356965405274664,-1.2172632733527722,9.7519449781402,0.007635803763673961,1.337492849595594e-05,0.003272492347489368,7.648614002532318,57.8884861508769,-93.5
1772748048.2734718,0.04190154154268101,1.6431458957292886,-6.999922545648973,-0.27830375987251305,-1.2250265275237808,9.764674808054751,-0.009828926206291624,0.006527778317940023,-0.015271630954950384,7.648614002532318,57.8884861508769,-93.5
1772748048.3063323,0.01268747363891897,1.6623785693538062,-7.000356197190677,-0.25472872666516166,-1.2301577305777105,9.793217037905285,-0.0011194896701590428,0.01636052593237335,-0.01090830782496456,6.959144502173912,59.01228019698834,-93.5
1772748048.3289027,0.010345205139134653,1.6972558346369875,-7.014380857758285,-0.2390398054160456,-1.2335724888908066,9.865733360350324,-0.0043900662933770325,0.015263964711064518,0.001090830782496456,6.959144502173912,59.01228019698834,-93.5
1772748048.3742428,-0.015762244412978375,1.660704787315653,-7.036104156248781,-0.2887933440065647,-1.245985759756908,9.92068238629174,-0.017418873072265167,-0.019665495228866653,-0.015271630954950384,7.96111352313848,57.88903352727269,-92.25
1772748048.3925693,-0.015762244412978375,1.660704787315653,-7.036104156248781,-0.2887933440065647,-1.245985759756908,9.92068238629174,-0.017418873072265167,-0.019665495228866653,-0.015271630954950384,7.96111352313848,57.88903352727269,-92.25
1772748048.4144764,-0.08360395726580229,1.5163486546727025,-7.008500380568042,-0.32190376815511257,-1.2542466528529772,9.957250349234911,-0.00645326085917684,-0.05237126146104655,0.006544984694978736,7.96111352313848,57.88903352727269,-92.25
1772748048.4316733,-0.026730868586058353,1.4987879380858695,-7.028672954289847,-0.2071347153977747,-1.0621426651440116,9.777534105936198,-0.019606263402670278,-0.016396829309719516,0.05999569303730508,7.96111352313848,57.88903352727269,-92.25
1772748048.4494705,0.12688801371518796,1.5082185420701508,-7.026661413816726,-0.13075719284208953,-0.9342996072658457,9.657934953582883,-0.005450324137339698,-0.002191211738546814,0.09381144729469522,8.39664229696226,59.014798128408984,-93.5
1772748048.4812531,0.12688801371518796,1.5082185420701508,-7.026661413816726,-0.13075719284208953,-0.9342996072658457,9.657934953582883,-0.005450324137339698,-0.002191211738546814,0.09381144729469522,8.39664229696226,59.014798128408984,-93.5
1772748048.5138297,0.45983485362105114,1.4653608324754093,-6.952596051632886,-0.0799288047741116,-0.8492214803484562,9.792430202970264,0.06118387601700508,-0.05552528513594264,0.2530727415391778,8.39664229696226,59.014798128408984,-93.5
1772748048.5291967,1.259130704216936,1.5111292449323144,-6.69669053003156,-0.11626828801870805,-0.8395574748946717,9.881935289027188,0.12758114886656435,0.026403450994600272,0.41233403578366035,8.773612276714502,57.89045670590175,-92.5625
1772748048.5517857,1.259130704216936,1.5111292449323144,-6.69669053003156,-0.11626828801870805,-0.8395574748946717,9.881935289027188,0.12758114886656435,0.026403450994600272,0.41233403578366035,8.773612276714502,57.89045670590175,-92.5625
1772748048.6243956,2.6440171291266976,2.064356726376132,-6.191565097097638,-0.08685979121660772,-0.8731737171260676,9.794315008838696,0.17751280705985348,0.16720829845527954,0.5497787143782138,8.773612276714502,57.89045670590175,-92.5625
1772748048.655527,5.02981791747493,3.087161023640565,-5.598189121647246,-0.12065812819290928,-0.9826114707833782,9.736004691155916,0.09448559900393087,0.23796697703715308,0.8715737952146683,10.963736327657436,56.39429064176271,-95.0625
1772748048.6881857,7.191554182417627,3.657766501444905,-5.356296294492989,-0.11982854687018238,-1.001878352942793,9.857765188058284,0.05529982205558224,0.18990171089036612,1.0188359508516898,10.963736327657436,56.39429064176271,-95.0625
1772748048.725468,9.597312938694884,4.078675576736608,-5.112675115915196,-0.11927646976693819,-1.014700247794708,9.972246555666132,0.039141830754719074,0.07315433565600139,1.1039207518864134,12.091362008539418,54.896263497877975,-95.0625
1772748048.7654154,9.597312938694884,4.078675576736608,-5.112675115915196,-0.11927646976693819,-1.014700247794708,9.972246555666132,0.039141830754719074,0.07315433565600139,1.1039207518864134,12.091362008539418,54.896263497877975,-95.0625
1772748048.801938,13.99337548860002,4.294610392114996,-5.253436247049701,-0.09894975610708039,-0.9596408947744501,10.048432626968486,-0.1897029976669976,-0.058146405290430886,1.126828198318839,12.091362008539418,54.896263497877975,-95.0625
1772748048.8237834,15.850277304782207,4.15037048119024,-5.51885050586068,-0.0854225552307145,-0.9229995103927418,9.94860357953665,-0.2408401272136341,-0.1335034169094042,1.1082840750163994,14.658237088676279,52.40075581947416,-95.5
1772748048.8374896,17.060779790986967,4.038919170524425,-5.71247675410866,-0.10312847294849065,-0.9287679120801058,9.878823351926972,-0.25169109718247135,-0.16624739722300114,1.069014166846527,14.658237088676279,52.40075581947416,-95.5
1772748048.8806374,19.469527284457367,3.780345716592592,-6.074214584659096,-0.1550528423102067,-0.9326770307170686,9.835730501656268,-0.2320103163210379,-0.1923929031680365,1.0711958284115197,15.098363824224704,50.90152444751869,-94.25
1772748048.916268,22.198752711776315,3.3606497911249287,-6.384625394675175,-0.19295303666293387,-0.9352843648148587,9.840503808252988,-0.2132655975389618,-0.3068974776539415,1.2522737383059315,15.098363824224704,50.90152444751869,-94.25
1772748048.9635005,26.709223969961325,2.7434695990467697,-6.602454795646501,-0.21483008605604592,-0.9370136572184999,9.883821730959609,-0.11507569208772979,-0.3154521471603351,1.3602659857730806,13.597161897244384,51.586395986152446,-95.875
1772748048.992611,26.709223969961325,2.7434695990467697,-6.602454795646501,-0.21483008605604592,-0.9370136572184999,9.883821730959609,-0.11507569208772979,-0.3154521471603351,1.3602659857730806,13.597161897244384,51.586395986152446,-95.875
1772748049.0094428,28.23635094521908,2.6392235792296708,-6.605916937756637,-0.2327282653076164,-0.9415154478839853,9.912649324627962,-0.06285537624828047,-0.23572990840090582,1.3482668471656196,13.597161897244384,51.586395986152446,-95.875
1772748049.0440176,30.469893257236237,2.625052720733843,-6.563085136811223,-0.2546101709522396,-0.981325089554272,9.747852622286363,-0.01831863177427636,-0.12875031684256552,1.3242685699506975,13.597161897244384,51.586395986152446,-95.875
1772748049.0888822,-121.43351681668516,-2.8953531063894618,-2.0919197041812088,-0.2691723347218341,-1.007817961383012,9.638182257777816,-0.01188638865987888,-0.06437993518145989,1.3286318930806833,10.662293810246252,50.08125294912244,-95.875
1772748049.1113331,35.66382770585776,2.898625221450018,-6.348898861945851,-0.2721847975142538,-1.0187467398636214,9.56519785529562,-0.029345386517631914,-0.06113801911930466,1.3755376167280309,10.662293810246252,50.08125294912244,-95.875
1772748049.1397455,35.66382770585776,2.898625221450018,-6.348898861945851,-0.2641893939996911,-1.0059315024678908,9.516627550732917,-0.07183231135433216,-0.09284658074185996,1.4082625402029247,9.914156040537154,49.017440875711586,-96.25
1772748049.1780457,41.89493153932236,3.103417978826077,-6.316461415236361,-0.258897838838297,-0.980677572258032,9.487649667319609,-0.08921105964110947,-0.1354194872617485,1.3897184169004848,9.914156040537154,49.017440875711586,-96.25
1772748049.224207,44.93846541469155,3.0704916431290665,-6.390337706472697,-0.2553880866141486,-0.957181150656823,9.498471214978094,-0.12190918305700596,-0.15074841591122193,1.347176016383123,9.476656711688527,49.01667454875748,-96.25
1772748049.2544832,44.93846541469155,3.0704916431290665,-6.390337706472697,-0.2553880866141486,-0.957181150656823,9.498471214978094,-0.12190918305700596,-0.15074841591122193,1.347176016383123,9.476656711688527,49.01667454875748,-96.25
1772748049.2920315,50.97499101431272,3.047656825343584,-6.434944426508482,-0.20140565724627796,-0.9031945421138932,9.523845877941277,-0.052172548237678064,-0.10699296648683629,1.3209960776032081,7.665473195522683,48.2635009162071,-97.5
1772748049.326335,53.888307387057345,3.0906816493197056,-6.274742471649629,-0.19709219841575631,-0.8855112643081142,9.606187181491633,0.00236126440085254,-0.10253411484690862,1.3046336158657614,7.665473195522683,48.2635009162071,-97.5
1772748049.3785892,57.536268981838376,3.101744228318342,-6.0361605093443975,-0.19755502769903768,-0.8804393129275648,9.660984399191765,0.013315412389515762,-0.12869490642451084,1.3089969389957472,6.977974250189125,48.26229668813636,-97.5
1772748049.4234324,60.34067432732193,2.974325288571189,-5.793126023410995,-0.24127910914994147,-0.9172814359137138,9.697451335446173,0.06252118595124112,-0.1962403295052919,1.239183768915974,6.977974250189125,48.26229668813636,-97.5
1772748049.4440954,60.34067432732193,2.974325288571189,-5.793126023410995,-0.24127910914994147,-0.9172814359137138,9.697451335446173,0.06252118595124112,-0.1962403295052919,1.239183768915974,6.977974250189125,48.26229668813636,-97.5
1772748049.4652834,62.36609498395446,2.777960012762049,-5.665680683999233,-0.37394639589536566,-1.0155734405641117,9.721719674161113,0.027708278959631846,-0.24975209838127688,1.1922780452686264,2.916137333983963,47.88018137026368,-100.25
1772748049.4804876,62.36609498395446,2.777960012762049,-5.665680683999233,-0.37394639589536566,-1.0155734405641117,9.721719674161113,0.027708278959631846,-0.24975209838127688,1.1922780452686264,2.916137333983963,47.88018137026368,-100.25
1772748049.5030506,64.38507504233552,2.5307882928225673,-5.643251025276512,-0.4689017691347507,-1.0943778165933964,9.754595541017396,-0.0420493736044754,-0.2815084276056034,1.1813697374436618,2.916137333983963,47.88018137026368,-100.25
1772748049.527972,65.66947647478115,2.332977989720607,-5.648897282826806,-0.6590903729296115,-1.2139460339317412,9.783164286577394,-0.05401983324347172,-0.29789188198682703,1.1115565673638885,2.916137333983963,47.88018137026368,-100.25
1772748049.5543265,68.0238322983058,2.0297480856841665,-5.72971806007494,-0.7956940839363299,-1.2935349248437282,9.862388478345524,-0.035470006276622404,-0.30113188734491136,1.0242901047641721,-2.582650000613755,47.183048600364195,-98.6875
1772748049.5788765,69.6012915512307,1.9484492402679023,-5.863551936496631,-0.8866081869604711,-1.3431553361037734,9.915111292975006,-0.019168712170445433,-0.2661966952927676,0.8955720724295904,-2.582650000613755,47.183048600364195,-98.6875
1772748049.6088967,71.03516092644449,1.9475541281824278,-6.0120649468281995,-0.923694760915948,-1.3761361503127676,9.893330838134066,-0.041109490116976344,-0.19533101728292648,0.815941425307349,-2.582650000613755,47.183048600364195,-98.6875
1772748049.6323814,71.03516092644449,1.9475541281824278,-6.0120649468281995,-0.923694760915948,-1.3761361503127676,9.893330838134066,-0.041109490116976344,-0.19533101728292648,0.815941425307349,-2.582650000613755,47.183048600364195,-98.6875
1772748049.6673098,73.62654776442115,1.9747972447848212,-6.371102145927894,-0.9169142784137705,-1.3825009755770379,9.810132587966567,-0.10445973871960718,-0.1485361864278958,0.7504915783575618,-5.960819606255897,48.989634154805394,-96.6875
1772748049.6962154,75.26996701360967,1.9312987258321217,-6.534395087977263,-0.8770898995999343,-1.3286107029447214,9.736495778249619,-0.08375500339155723,-0.13650076285049054,0.7264933011426397,-6.2745233549328,49.67658572374316,-97.875
1772748049.7320154,76.47015736702997,1.9463065460938012,-6.627101815614311,-0.7971123896561854,-1.2658927268942521,9.687491303960053,-0.08057996197188176,-0.08086274617436769,0.7134033317526822,-6.2745233549328,49.67658572374316,-97.875
1772748049.7605796,77.2798201532531,1.9713123344606154,-6.67586237195446,-0.7138233062027509,-1.20068613459488,9.658224485443512,-0.07296135454484547,-0.07103190926400521,0.7286749627076325,-6.2745233549328,49.67658572374316,-97.875
1772748049.788061,78.5057544301163,2.0454547722524454,-6.723994433151921,-0.631646217583999,-1.1505547881727176,9.638747744652537,-0.05336846607067113,-0.046999276190611734,0.7384924397501007,-5.154779894150209,52.67855167658717,-97.875
1772748049.814053,78.5057544301163,2.0454547722524454,-6.723994433151921,-0.631646217583999,-1.1505547881727176,9.638747744652537,-0.05336846607067113,-0.046999276190611734,0.7384924397501007,-5.154779894150209,52.67855167658717,-97.875
1772748049.8399062,79.69438973821585,2.225645374873113,-6.6932271531707,-0.5502091491059321,-1.1104558494803076,9.625786191225595,0.006466635787672796,0.04473545769737259,0.717766654882668,-5.154779894150209,52.67855167658717,-97.875
1772748049.8710682,82.91171434144846,3.0085048606000893,-6.224498387574051,-0.2906697230701982,-1.0100025659810354,9.633705054011058,0.0804309270543554,0.16594741668387755,0.7570365630525404,-1.471117185768031,54.87250736230064,-98.25
1772748049.9204586,84.13722886572369,3.3504445207543694,-5.94390234431633,-0.19957103216336988,-0.9899422685107288,9.649191230592791,0.12397237762280577,0.218383642083333,0.7646723785300157,-1.471117185768031,54.87250736230064,-98.25
1772748049.9676597,84.13722886572369,3.3504445207543694,-5.94390234431633,-0.19957103216336988,-0.9899422685107288,9.649191230592791,0.12397237762280577,0.218383642083333,0.7646723785300157,-1.471117185768031,54.87250736230064,-98.25
1772748049.9857755,86.37113946054065,4.199872644897298,-5.218702381178599,-0.10547722730894508,-0.9865690912335185,9.659497108116007,0.1686237643410609,0.2599134870958965,0.693768377667746,0.9649558963309791,55.689275651763836,-100.25
1772748050.0073419,87.0039029302623,4.523892024242998,-4.8868040847876015,-0.03280009429741699,-0.9976871278014371,9.766708905703094,0.26684615176149745,0.23281472273486611,0.5737769915931359,0.9649558963309791,55.689275651763836,-100.25
1772748050.0387373,87.85864125345773,4.63145249110367,-4.473028754281684,0.01559502242802199,-1.0218115898193625,9.868163164728923,0.264714171849147,0.20444934449022112,0.5355979142057599,0.9649558963309791,55.689275651763836,-100.25
1772748050.0718107,88.92347230484346,4.437234279029899,-4.16944775747235,0.037766112272776424,-1.0378837277422164,9.93567984079228,0.19289141401516904,0.10614861820287975,0.4908738521234052,7.655073044002653,54.200991807724186,-102.6875
1772748050.1021926,89.60329755008163,4.273636972549325,-4.161825490389187,0.0424971237952251,-1.055287347081587,9.927089647184646,0.04903189949127793,0.031720025846980415,0.385063266221249,7.655073044002653,54.200991807724186,-102.6875
1772748050.1310616,89.60329755008163,4.273636972549325,-4.161825490389187,0.0424971237952251,-1.055287347081587,9.927089647184646,0.04903189949127793,0.031720025846980415,0.385063266221249,7.655073044002653,54.200991807724186,-102.6875
1772748050.1625779,89.60329755008163,4.273636972549325,-4.161825490389187,0.0424971237952251,-1.055287347081587,9.927089647184646,0.04903189949127793,0.031720025846980415,0.385063266221249,7.655073044002653,54.200991807724186,-102.6875
1772748050.2381756,90.36618945466029,3.6809378764497738,-5.134344559841377,-0.10149358602709722,-1.12832470532277,9.917568584023105,-0.06319930298103361,-0.03938066876357543,-0.08399397025222712,9.90649277099608,53.39243416419786,-103.5
1772748050.295507,90.09715166017142,3.357278317511463,-5.513903285492288,-0.19056179903112513,-1.1792779234376585,9.888275914462199,-0.07839066093740579,-0.0852222412026111,-0.10581058590215622,10.968991141057032,53.394295243943546,-104.25
1772748050.3246217,90.09715166017142,3.357278317511463,-5.513903285492288,-0.19056179903112513,-1.1792779234376585,9.888275914462199,-0.07839066093740579,-0.0852222412026111,-0.10581058590215622,10.968991141057032,53.394295243943546,-104.25
1772748050.3658917,89.96022159227994,3.132787531338009,-5.844266836013558,-0.26656123270675586,-1.2132160174714135,9.811915071065545,-0.10238507992938226,-0.08744593491036239,-0.04145156973486533,10.968991141057032,53.394295243943546,-104.25
1772748050.3862793,89.98011814691657,2.921000282287488,-6.264481638282332,-0.3171380068485871,-1.2358014399375266,9.754407559376945,-0.1264463735638385,-0.05149060979974386,0.02945243112740431,9.468336590472502,53.76666726197114,-104.6875
1772748050.4196675,90.14744373936614,2.8860861778326847,-6.582124697324532,-0.3608316047875386,-1.2508493642308476,9.722827176163818,-0.12759643449913116,-0.01767681812183003,0.08617563181722002,9.468336590472502,53.76666726197114,-104.6875
1772748050.437058,90.24095309536597,2.9166544134574615,-6.733409195836881,-0.4232782415070985,-1.3077536749378291,9.748642347813949,-0.11891756922813218,0.009609195238143778,0.08290313946973066,9.468336590472502,53.76666726197114,-104.6875
1772748050.456708,90.24095309536597,2.9166544134574615,-6.733409195836881,-0.4232782415070985,-1.3077536749378291,9.748642347813949,-0.11891756922813218,0.009609195238143778,0.08290313946973066,9.468336590472502,53.76666726197114,-104.6875
1772748050.4801025,90.41120532501186,3.0415466067600985,-6.951849352464193,-0.46480648410628844,-1.3623483909291065,9.765822056172748,-0.07753293772495332,0.04786082081120591,0.08399397025222712,7.403212347772032,55.2630522766685,-104.25
1772748050.5018609,90.55653767372634,3.125533826045655,-7.072018117363921,-0.49244306565518337,-1.3986805645583638,9.773909848468293,-0.07097076673373799,0.038054823053764494,0.09272061651219876,7.403212347772032,55.2630522766685,-104.25
1772748050.5282109,90.6351909397983,3.1755307694821897,-7.16376761978628,-0.5075542478180959,-1.3860571886061746,9.759221513650502,-0.07861039190555365,0.0402231063434611,0.07417649320975901,7.403212347772032,55.2630522766685,-104.25
1772748050.5506232,90.6351909397983,3.1755307694821897,-7.16376761978628,-0.5075542478180959,-1.3860571886061746,9.759221513650502,-0.07861039190555365,0.0402231063434611,0.07417649320975901,7.403212347772032,55.2630522766685,-104.25
1772748050.5686853,90.69765761528286,3.229907368898966,-7.290756975106632,-0.5075811103300073,-1.3742937884088022,9.749446590908713,-0.07641344805479428,0.03150029487883257,0.037088246604879506,7.963193553442486,56.70153534896927,-105.5
1772748050.5918682,90.69765761528286,3.229907368898966,-7.290756975106632,-0.5075811103300073,-1.3742937884088022,9.749446590908713,-0.07641344805479428,0.03150029487883257,0.037088246604879506,7.963193553442486,56.70153534896927,-105.5
1772748050.6104965,90.69694456306185,3.181323145665292,-7.429912988888168,-0.4842476934402793,-1.329628189462108,9.749631712431732,-0.0643092391308384,-0.028474288376683483,-0.009817477042468103,7.963193553442486,56.70153534896927,-105.5
1772748050.6272516,90.66284370036604,3.1301970836587683,-7.530174907159782,-0.4687195651515106,-1.2999037323105158,9.74975490873736,-0.06104630532390382,-0.02301441071898953,-0.02181661564992912,7.963193553442486,56.70153534896927,-105.5
1772748050.6424358,90.66284370036604,3.1301970836587683,-7.530174907159782,-0.4687195651515106,-1.2999037323105158,9.74975490873736,-0.06104630532390382,-0.02301441071898953,-0.02181661564992912,7.963193553442486,56.70153534896927,-105.5
1772748050.6712964,90.55290437204923,3.1133495786086725,-7.602358485237866,-0.47839781556411604,-1.3136086597528833,9.736456447673286,-0.037092011117415224,0.0021166942797836313,-0.06544984694978735,9.146641146417048,59.016111831758884,-104.25
1772748050.7051399,90.3253319530359,3.1431562436630376,-7.6927321178531844,-0.48817197105106513,-1.3294252083357485,9.727606470388686,-0.029498242843299983,0.02612830960839775,-0.11671889372712078,9.146641146417048,59.016111831758884,-104.25
1772748050.7282412,89.99047437515641,3.1703337991435374,-7.7220228770020585,-0.49468828096837414,-1.3332607315837883,9.741787579610426,-0.003341272673839471,0.03926411581525353,-0.14944381720201447,8.773064900318712,58.20295622650791,-105.0625
1772748050.7598305,89.99047437515641,3.1703337991435374,-7.7220228770020585,-0.49468828096837414,-1.3332607315837883,9.741787579610426,-0.003341272673839471,0.03926411581525353,-0.14944381720201447,8.773064900318712,58.20295622650791,-105.0625
1772748050.7926815,89.76896100563698,3.1703029719022746,-7.663648602971523,-0.49238733308842747,-1.305695551653094,9.767950507920721,0.005375806678576516,0.04473354699330174,-0.14726215563702155,8.773064900318712,58.20295622650791,-105.0625
1772748050.8076882,89.71834422910901,3.0977728992506153,-7.516053882560631,-0.49085607797759495,-1.2873512323324527,9.785361644452164,0.08406835885917675,-0.042395211041299403,-0.039269908169872414,9.897406322825946,58.579926206260154,-107.5
1772748050.8208435,89.71834422910901,3.0977728992506153,-7.516053882560631,-0.49085607797759495,-1.2873512323324527,9.785361644452164,0.08406835885917675,-0.042395211041299403,-0.039269908169872414,9.897406322825946,58.579926206260154,-107.5
1772748050.8335605,89.64624706146793,2.9893672736367964,-7.324068461015783,-0.48990735655786727,-1.2350020138354432,9.750116997416228,0.0786352310584747,-0.05440388476171274,-0.04036073895236887,9.897406322825946,58.579926206260154,-107.5
1772748050.8493092,89.64624706146793,2.9893672736367964,-7.324068461015783,-0.48990735655786727,-1.2350020138354432,9.750116997416228,0.0786352310584747,-0.05440388476171274,-0.04036073895236887,9.897406322825946,58.579926206260154,-107.5
1772748050.869451,89.6548039810513,2.821527907046756,-7.2136327684378925,-0.4255549073593275,-1.2937158508852848,9.726662078522317,0.03727352800414605,-0.10574545964393023,0.0,9.897406322825946,58.579926206260154,-107.5
1772748050.9058712,89.68621292139356,2.640228686494757,-7.207266357394347,-0.3827290712816589,-1.3327892535654196,9.7746102144461,0.013277198308098745,-0.10687832424258523,0.006544984694978736,9.147407473371155,58.578612502910254,-108.25
1772748050.9260135,89.73264332883578,2.4447776429269474,-7.23488029719681,-0.36091916891933806,-1.3588038851957573,9.806519163287604,-0.016215312422988685,-0.08402250196147633,0.007635815477475192,9.147407473371155,58.578612502910254,-108.25
1772748050.9738119,89.69714871597986,2.308750164729305,-7.210163268252598,-0.38663409112749675,-1.326010045058816,9.784267760100159,0.025207533161607194,-0.06758745857033979,-0.04363323129985824,9.149268553116846,57.5161141328493,-107.875
1772748051.0389872,89.41437618521485,2.2225699894632687,-6.997195113895248,-0.36365268019478775,-1.2773549464218568,9.74269880618482,0.06544019302542255,0.005568787789732451,-0.10471975511965978,9.149268553116846,57.5161141328493,-107.875
1772748051.079415,89.29439609140744,2.191091729457585,-6.895314144601174,-0.30482554795307737,-1.271660203333857,9.715035131709802,0.0632661776235134,0.0012016499452056292,-0.05890486225480862,7.650037181161374,57.07598739730088,-109.0625
1772748051.1177528,89.3060636483976,2.1620742227824183,-6.894889800743706,-0.26237851651348837,-1.2411037035049033,9.720041047321406,1.9107040708508487e-06,-0.0010908291090962802,0.013089969389957472,7.650037181161374,57.07598739730088,-109.0625
1772748051.1516626,89.31685401054322,2.163063770547864,-6.845314834251955,-0.23733497432798598,-1.3010571113370035,9.770203992143658,0.03382525590233894,-0.005394913719285024,0.00545415391248228,7.96111352313848,57.88903352727269,-108.25
1772748051.1718526,89.34352069875614,2.1399636825069788,-6.819675134763267,-0.24420170904039706,-1.2740943181997444,9.756755307663585,0.02184142133484666,-0.014142564336834624,0.011999138607461015,7.96111352313848,57.88903352727269,-108.25
1772748051.1984766,89.34408590958007,2.135142003986759,-6.804819071102029,-0.24877144428505393,-1.2561508805610329,9.744460246666428,0.012006763016342485,-0.004342298691605761,0.00545415391248228,7.96111352313848,57.88903352727269,-108.25
1772748051.2261333,89.34408590958007,2.135142003986759,-6.804819071102029,-0.2518125520430856,-1.244209723253802,9.736278020917648,0.003278219439501393,-0.003266755215076288,-0.001090830782496456,7.649270854207267,57.5134867261495,-109.0625
1772748051.2468116,89.34408590958007,2.135142003986759,-6.804819071102029,-0.2518125520430856,-1.244209723253802,9.736278020917648,0.003278219439501393,-0.003266755215076288,-0.001090830782496456,7.649270854207267,57.5134867261495,-109.0625
1772748051.2752483,89.33030526003041,2.1143497447287563,-6.814518538171958,-0.24378933693229177,-1.2429356516709176,9.750903511327204,0.004378602068951927,-0.008718990056486837,-0.008726646259971648,7.649270854207267,57.5134867261495,-109.0625
1772748051.3018208,89.33791337858852,2.075398516365155,-6.794660542088336,-0.23175976374981103,-1.2420760526396049,9.76398172352465,0.01638918649343611,-0.015242946966285158,-0.001090830782496456,8.400036030616164,57.07730110065078,-109.0625
1772748051.3245115,89.33791337858852,2.075398516365155,-6.794660542088336,-0.23175976374981103,-1.2420760526396049,9.76398172352465,0.01638918649343611,-0.015242946966285158,-0.001090830782496456,8.400036030616164,57.07730110065078,-109.0625
1772748051.3524613,89.36413742276576,2.0622302006712765,-6.759243368863429,-0.22375421717600744,-1.2415039990866163,9.769340015941527,0.02292078621951784,-0.007595678978186093,0.006544984694978736,8.400036030616164,57.07730110065078,-109.0625
1772748051.389851,89.401188416453,2.0348542690939513,-6.718615727672729,-0.2518718218035122,-1.2445270035391518,9.759525452859632,0.013107145645793019,-0.009794533533016311,0.017453292519943295,7.650037181161374,57.07598739730088,-107.875
1772748051.4098606,89.4019403899284,2.025052410053993,-6.708666699310023,-0.2705837735888925,-1.2465387792331417,9.752993970764486,0.007643446579957364,-0.004349941507889164,0.008726646259971648,7.650037181161374,57.07598739730088,-107.875
1772748051.4442217,89.40272557290841,2.010208665482512,-6.7135003926403725,-0.2897324409399061,-1.244544205533984,9.768718012635517,0.009836569022575029,-0.010891094754325143,0.0,7.650037181161374,57.07598739730088,-107.875
1772748051.5116062,89.38375528730185,1.9942039036106045,-6.718671048922779,-0.2723990025389661,-1.226438572325992,9.779182186851632,0.008747650617549601,-0.011983834567492272,-0.006544984694978736,7.963193553442486,56.70153534896927,-108.6875
1772748051.5380518,89.34523788043614,1.9720616555690542,-6.729071308602012,-0.2608637929103345,-1.2143894756792486,9.786145977899972,0.003278219439501393,-0.003266755215076288,-0.020725784867432664,7.963193553442486,56.70153534896927,-108.6875
1772748051.5895507,89.34623708273953,1.9522421779723667,-6.738799352363528,-0.22310471782819774,-1.192937776341736,9.78074496793004,-0.009867140287708642,0.028344360499865627,-0.008726646259971648,6.963195087502766,56.69978374450274,-109.5
1772748051.6142728,89.34623708273953,1.9522421779723667,-6.738799352363528,-0.22310471782819774,-1.192937776341736,9.78074496793004,-0.009867140287708642,0.028344360499865627,-0.008726646259971648,6.963195087502766,56.69978374450274,-109.5
1772748051.651533,89.35707067477642,1.9380530270919858,-6.733584851094861,-0.19797647515754166,-1.1786619100638043,9.75373487417705,-0.004351852211960015,-0.006552617470861084,-0.014180800172453928,6.963195087502766,56.69978374450274,-109.5
1772748051.6855621,89.35686144078994,1.9430261484709905,-6.728682797693663,-0.19797358392705736,-1.1725358836664703,9.735759958506952,0.010919755315387905,-0.006525867613869172,0.008726646259971648,8.399269703662057,57.5148004294994,-108.6875
1772748051.711278,89.34698338755193,1.9424446827829616,-6.728846490198661,-0.19797165984546722,-1.1684590815312432,9.743868523165382,-0.0021893010344759636,0.004359495028243419,-0.01090830782496456,8.399269703662057,57.5148004294994,-108.6875
1772748051.7424393,89.34698338755193,1.9424446827829616,-6.728846490198661,-0.19797165984546722,-1.1684590815312432,9.743868523165382,-0.0021893010344759636,0.004359495028243419,-0.01090830782496456,8.399269703662057,57.5148004294994,-108.6875
1772748051.7660067,89.34221610628813,1.9372617272702992,-6.7341208396013705,-0.2112570566918065,-1.2192911577130061,9.749264682366965,-0.0010889184050254293,-0.001092739813167131,0.004363323129985824,8.399269703662057,57.5148004294994,-108.6875
1772748051.8023102,-122.56958693535205,-4.732117188926757,-0.0022454800324894788,-0.2201569330115143,-1.2196682708233084,9.742820430914612,-0.002187390330405113,0.0032686659191471386,-0.004363323129985824,8.400036030616164,57.07730110065078,-109.875
1772748051.8271754,89.35807344649913,1.9182346004455608,-6.743315137131553,-0.22607970128414717,-1.2199192353855852,9.738531853560078,0.004369048548597673,-0.003264844511005437,-0.002181661564992912,8.400036030616164,57.07730110065078,-109.875
1772748051.8515565,89.35807344649913,1.9182346004455608,-6.743315137131553,-0.22339547669517837,-1.1832783585402271,9.752403411773779,-0.0021759261059800077,-0.003276308735430542,0.00545415391248228,8.400036030616164,57.07730110065078,-109.875
1772748051.8687973,89.35807344649913,1.9182346004455608,-6.743315137131553,-0.22339547669517837,-1.1832783585402271,9.752403411773779,-0.0021759261059800077,-0.003276308735430542,0.00545415391248228,8.400036030616164,57.07730110065078,-109.875
1772748051.9073803,89.35828437071278,1.9132616214388556,-6.748217186345228,-0.22160915521597294,-1.1588942643050548,9.761634778809539,-0.0010889184050254293,-0.001092739813167131,0.0,7.650037181161374,57.07598739730088,-109.0625
1772748051.9259007,89.35849571926235,1.9082886783816895,-6.753119222041457,-0.2203617851000043,-1.1761179877368915,9.757742815328752,-1.9107040708508487e-06,0.0010908291090962802,-0.003272492347489368,7.650037181161374,57.07598739730088,-109.0625
1772748051.9440663,89.35870749213962,1.9033157713472029,-6.758021244257605,-0.24963763340331177,-1.1876329170926494,9.75515275710837,-7.642816283403395e-06,0.004363316436385121,-0.002181661564992912,7.650037181161374,57.07598739730088,-109.0625
1772748051.968892,89.35870749213962,1.9033157713472029,-6.758021244257605,-0.24963763340331177,-1.1876329170926494,9.75515275710837,-7.642816283403395e-06,0.004363316436385121,-0.002181661564992912,7.650037181161374,57.07598739730088,-109.0625
1772748051.9977686,89.35431597757875,1.8932312450587194,-6.758319541273415,-0.23903786148549216,-1.1818628138323837,9.753429102295552,-0.0010850969968837277,-0.0032743980313596913,0.001090830782496456,7.399271237722337,57.513048825032875,-109.875
1772748052.025639,89.353943893581,1.8981305823788832,-6.763295542501829,-0.25874468428712494,-1.1780697490698142,9.758972252686746,0.001092739813167131,-0.0010889184050254291,0.002181661564992912,7.399271237722337,57.513048825032875,-109.875
1772748052.0663154,89.35415656561285,1.8931573229060414,-6.768197530695316,-0.2517769966424632,-1.1822005641174211,9.762661157351038,1.9107040708508487e-06,-0.0010908291090962802,-0.003272492347489368,7.399271237722337,57.513048825032875,-109.5
1772748052.093167,89.35474173160735,1.8832847609623973,-6.768123605351059,-0.24714007834911178,-1.184949575387376,9.765116082197359,-0.001092739813167131,0.0010889184050254291,0.0,7.399271237722337,57.513048825032875,-109.5
1772748052.1129522,89.35474173160735,1.8832847609623973,-6.768123605351059,-0.24405426102265765,-1.1867790116790629,9.766749807259279,-0.0021816582181925603,-3.8214081417016975e-06,-0.001090830782496456,7.399271237722337,57.513048825032875,-109.5
1772748052.1285846,89.35474173160735,1.8832847609623973,-6.768123605351059,-0.24405426102265765,-1.1867790116790629,9.766749807259279,-0.0021816582181925603,-3.8214081417016975e-06,-0.001090830782496456,7.399271237722337,57.513048825032875,-109.5
1772748052.1565447,89.35495524512828,1.8783115733612243,-6.773025617435504,-0.24198896543752538,-1.194686694246471,9.761146809623444,-0.0010908291090962802,-1.9107040708508487e-06,0.0,5.898069310742017,58.19792036366663,-108.25
1772748052.1958575,89.35516918297601,1.873338422155569,-6.777927616266852,-0.24061453429648327,-1.1999491686604788,9.75741807728638,1.9107040708508487e-06,-0.0010908291090962802,0.001090830782496456,5.898069310742017,58.19792036366663,-108.25
1772748052.2213485,89.35516918297601,1.873338422155569,-6.777927616266852,-0.2397115843507367,-1.1967610734458771,9.76497198269069,-0.0010908291090962802,-1.9107040708508487e-06,0.001090830782496456,7.96177037481343,57.514034102545295,-110.0
1772748052.2531896,89.35575516893269,1.86346590230738,-6.777853866731685,-0.2391106812484542,-1.1946394316939168,9.769999022354607,0.0,0.0,-0.001090830782496456,7.96177037481343,57.514034102545295,-110.0
1772748052.2811203,89.35575516893269,1.86346590230738,-6.777853866731685,-0.2391106812484542,-1.1946394316939168,9.769999022354607,0.0,0.0,-0.001090830782496456,7.96177037481343,57.514034102545295,-110.0
1772748052.3013544,89.35575516893269,1.86346590230738,-6.777853866731685,-0.23871078694641268,-1.1932275028082786,9.769999349387913,0.001092739813167131,-0.0010889184050254291,0.0,8.77503545534356,57.077957952325725,-108.6875
1772748052.3143055,89.35596994825293,1.8584928234119593,-6.782755889817314,-0.23845638038073128,-1.1855976667557326,9.769999567024923,0.0010965612213088326,-0.0032705766232179897,0.003272492347489368,8.77503545534356,57.077957952325725,-108.6875
1772748052.335138,89.35596994825293,1.8584928234119593,-6.782755889817314,-0.23828707565317783,-1.1805200960936166,9.773344823567243,-0.0010908291090962802,-1.9107040708508487e-06,0.001090830782496456,8.77503545534356,57.077957952325725,-108.6875
1772748052.3785686,89.35618515188027,1.8535197811312267,-6.787657899797219,-0.23816268662303358,-1.1838312426895918,9.775571054427191,-0.0010908291090962802,-1.9107040708508487e-06,0.0,7.96177037481343,57.514034102545295,-109.875
1772748052.3940642,89.35618515188027,1.8535197811312267,-6.787657899797219,-0.2380799071129891,-1.1860347737612824,9.77705258619586,0.0010908291090962802,1.9107040708508487e-06,0.001090830782496456,7.96177037481343,57.514034102545295,-109.875
1772748052.4187975,89.35618515188027,1.8535197811312267,-6.787657899797219,-0.2380799071129891,-1.1860347737612824,9.77705258619586,0.0010908291090962802,1.9107040708508487e-06,0.001090830782496456,7.96177037481343,57.514034102545295,-109.875
1772748052.4340343,89.35677195785136,1.843647304112496,-6.787584326640113,-0.23802481827376218,-1.1875011990744375,9.774693417330795,0.0010889184050254293,0.001092739813167131,0.0,7.962536701767537,57.07653477369667,-108.6875
1772748052.4778955,89.35677195785136,1.843647304112496,-6.787584326640113,-0.23802481827376218,-1.1875011990744375,9.774693417330795,0.0010889184050254293,0.001092739813167131,0.0,7.962536701767537,57.07653477369667,-108.6875
1772748052.529179,89.35677195785136,1.843647304112496,-6.787584326640113,-0.23798815726663933,-1.1884770887392984,9.773123416804737,-0.0010870077009545785,-0.002183568922263411,0.0,7.962536701767537,57.07653477369667,-108.6875
1772748052.591458,89.3569880029348,1.8386743345805558,-6.79248636123759,-0.24465983223996973,-1.1857931444593601,9.7720785989927,-0.001092739813167131,0.0010889184050254291,0.0,7.650037181161374,57.07598739730088,-109.0625
1772748052.6113913,89.35230266926675,1.8333306655220136,-6.797171694905643,-0.24908803878201316,-1.190697222674116,9.771383284410168,-1.9107040708508487e-06,0.0010908291090962802,0.0,7.650037181161374,57.07598739730088,-109.0625
1772748052.6331093,89.35230266926675,1.8333306655220136,-6.797171694905643,-0.2520408200820425,-1.1906157253681764,9.774265672029987,-0.0010908291090962802,-1.9107040708508487e-06,-0.002181661564992912,7.650037181161374,57.07598739730088,-109.0625
1772748052.657487,89.35251957581521,1.8283577758358165,-6.802073279367211,-0.24730979058844324,-1.1938948777719596,9.776183868792597,-0.0010946505172379818,0.0021797475141217093,0.0,7.401241792747184,56.388050550850686,-108.6875
1772748052.6937945,89.35251957581521,1.8283577758358165,-6.802073279367211,-0.24416134330951522,-1.1960771170661444,9.777460407310452,-0.0010889184050254293,-0.001092739813167131,0.001090830782496456,7.401241792747184,56.388050550850686,-108.6875
1772748052.7297168,89.35251957581521,1.8283577758358165,-6.802073279367211,-0.24206608681584918,-1.1975293729392147,9.778309929434215,0.0,0.0,-0.002181661564992912,7.400037564676444,57.075549496184244,-109.5
1772748052.771265,89.35251957581521,1.8283577758358165,-6.802073279367211,-0.24402268291318704,-1.195156585736873,9.775530165210476,0.0010889184050254293,0.001092739813167131,0.0,7.400037564676444,57.075549496184244,-109.5
1772748052.7897332,89.35251957581521,1.8283577758358165,-6.802073279367211,-0.24402268291318704,-1.195156585736873,9.775530165210476,0.0010889184050254293,0.001092739813167131,0.0,7.400037564676444,57.075549496184244,-109.5
1772748052.813747,89.35251957581521,1.8283577758358165,-6.802073279367211,-0.24532477575935488,-1.1935775223594842,9.77368026317158,0.0010889184050254293,0.001092739813167131,0.0,6.961771908873709,57.51228249807876,-110.25
1772748052.829224,89.35251957581521,1.8283577758358165,-6.802073279367211,-0.24619130400314945,-1.1925266733211257,9.772449174029452,-0.0010946505172379818,0.0021797475141217093,0.0,6.961771908873709,57.51228249807876,-110.25
1772748052.8705432,89.35251957581521,1.8283577758358165,-6.802073279367211,-0.24676796886963998,-1.191827345024851,9.771629897957533,-0.001092739813167131,0.0010889184050254291,-0.002181661564992912,6.961771908873709,57.51228249807876,-110.25
1772748052.8971696,89.35251957581521,1.8283577758358165,-6.802073279367211,-0.24676796886963998,-1.191827345024851,9.771629897957533,-0.001092739813167131,0.0010889184050254291,-0.002181661564992912,6.961771908873709,57.51228249807876,-110.25
1772748052.926421,89.35251957581521,1.8283577758358165,-6.802073279367211,-0.25049683947223716,-1.1913678091682969,9.771084678883584,-3.8214081417016975e-06,0.0021816582181925603,-0.001090830782496456,7.9643977815132265,56.014036403635714,-110.25
1772748052.942038,89.35251957581521,1.8283577758358165,-6.802073279367211,-0.25297836120405165,-1.191061993189112,9.774066953387686,0.0010812755887420259,0.005456056249552251,-0.001090830782496456,7.9643977815132265,56.014036403635714,-110.25
1772748052.9609911,89.35251957581521,1.8283577758358165,-6.802073279367211,-0.25297836120405165,-1.191061993189112,9.774066953387686,0.0010812755887420259,0.005456056249552251,-0.001090830782496456,7.9643977815132265,56.014036403635714,-110.25
1772748052.983936,89.35251957581521,1.8283577758358165,-6.802073279367211,-0.25127882030783616,-1.1941977233342613,9.772706512048659,0.0,0.0,0.001090830782496456,7.9643977815132265,56.014036403635714,-110.25
1772748053.0040555,89.35251957581521,1.8283577758358165,-6.802073279367211,-0.2434634409876954,-1.1929276915165261,9.771801153534662,-1.9107040708508487e-06,0.0010908291090962802,-0.002181661564992912,7.6506940328363235,56.70098797257348,-109.5
1772748053.0190368,89.35251957581521,1.8283577758358165,-6.802073279367211,-0.2434634409876954,-1.1929276915165261,9.771801153534662,-1.9107040708508487e-06,0.0010908291090962802,-0.002181661564992912,7.6506940328363235,56.70098797257348,-109.5
1772748053.0372262,89.35251957581521,1.8283577758358165,-6.802073279367211,-0.23825653404104147,-1.1954276061047244,9.771198647557114,3.8214081417016975e-06,-0.0021816582181925603,0.0,7.6506940328363235,56.70098797257348,-109.5
1772748053.0558903,89.35251957581521,1.8283577758358165,-6.802073279367211,-0.23479139563300502,-1.197091271337295,9.770797686559488,-0.0021835689222634114,0.0010870077009545783,-0.001090830782496456,7.6506940328363235,56.70098797257348,-109.5
1772748053.0742307,89.35251957581521,1.8283577758358165,-6.802073279367211,-0.23583049130630543,-1.1982042812778197,9.770530851494597,-0.0010908291090962802,-1.9107040708508487e-06,-0.001090830782496456,7.962536701767537,57.07653477369667,-109.5
1772748053.0900111,89.35251957581521,1.8283577758358165,-6.802073279367211,-0.23651613855682002,-1.2022900835358197,9.770353275739653,0.0010946505172379818,-0.0021797475141217093,-0.002181661564992912,7.962536701767537,57.07653477369667,-109.5
1772748053.108179,89.35251957581521,1.8283577758358165,-6.802073279367211,-0.23651613855682002,-1.2022900835358197,9.770353275739653,0.0010946505172379818,-0.0021797475141217093,-0.002181661564992912,7.962536701767537,57.07653477369667,-109.5
1772748053.1229863,89.35251957581521,1.8283577758358165,-6.802073279367211,-0.23697828845546345,-1.2016640327214003,9.770235101058391,-0.0010889184050254293,-0.001092739813167131,-0.001090830782496456,7.962536701767537,57.07653477369667,-109.5
1772748053.1484098,89.35251957581521,1.8283577758358165,-6.802073279367211,-0.2372917033630656,-1.1979022963221337,9.770156457128108,0.0,0.0,0.0,7.962536701767537,57.07653477369667,-110.25
1772748053.1730015,89.35251957581521,1.8283577758358165,-6.802073279367211,-0.23415517090728455,-1.1953930434571631,9.770104120471014,-3.8214081417016975e-06,0.0021816582181925603,0.0,7.962536701767537,57.07653477369667,-110.25
1772748053.2139955,89.35251957581521,1.8283577758358165,-6.802073279367211,-0.23415517090728455,-1.1953930434571631,9.770104120471014,-3.8214081417016975e-06,0.0021816582181925603,0.0,7.962536701767537,57.07653477369667,-110.25
1772748053.253017,89.35251957581521,1.8283577758358165,-6.802073279367211,-0.23735920511792827,-1.1981948336446895,9.764474866212167,0.0021797475141217093,0.0010946505172379818,-0.001090830782496456,7.6506940328363235,56.70098797257348,-108.6875
1772748053.2838218,89.35251957581521,1.8283577758358165,-6.802073279367211,-0.23735920511792827,-1.1981948336446895,9.764474866212167,0.0021797475141217093,0.0010946505172379818,-0.001090830782496456,7.6506940328363235,56.70098797257348,-108.6875
1772748053.2980335,89.35251957581521,1.8283577758358165,-6.802073279367211,-0.2442295529856432,-1.1989504082910072,9.766323085183986,-0.0010889184050254293,-0.001092739813167131,0.0,6.963195087502766,56.69978374450274,-109.875
1772748053.3219187,89.35251957581521,1.8283577758358165,-6.802073279367211,-0.24880169274479313,-1.19945323477781,9.767553054263772,0.00024648082513975946,-0.1407169550734201,-0.001090830782496456,6.963195087502766,56.69978374450274,-109.875
1772748053.3422792,89.35251957581521,1.8283577758358165,-6.802073279367211,-0.25184440068035974,-1.1997878601878371,9.768371584946715,0.001092739813167131,-0.0010889184050254291,-0.001090830782496456,6.963195087502766,56.69978374450274,-109.875
1772748053.3734262,89.35251957581521,1.8283577758358165,-6.802073279367211,-0.25184440068035974,-1.1997878601878371,9.768371584946715,0.001092739813167131,-0.0010889184050254291,-0.001090830782496456,6.963195087502766,56.69978374450274,-109.875
1772748053.3987625,89.35251957581521,1.8283577758358165,-6.802073279367211,-0.24719079429598706,-1.1933086178835515,9.768916307972626,1.9107040708508487e-06,-0.0010908291090962802,0.001090830782496456,7.399271237722337,57.513048825032875,-111.0625
1772748053.4351556,89.35251957581521,1.8283577758358165,-6.802073279367211,-0.24409387123137646,-1.1889967545079283,9.769278815061416,0.0,0.0,-0.001090830782496456,7.399271237722337,57.513048825032875,-111.0625
1772748053.4791982,89.35251957581521,1.8283577758358165,-6.802073279367211,-0.24202704421416793,-1.1894723641738374,9.769520059479536,-1.9107040708508487e-06,0.0010908291090962802,0.0,7.650037181161374,57.07598739730088,-109.5
1772748053.5132568,89.35251957581521,1.8283577758358165,-6.802073279367211,-0.24064573460957864,-1.1931339836693082,9.769680604944918,0.0010889184050254293,0.001092739813167131,0.002181661564992912,7.650037181161374,57.07598739730088,-109.5
1772748053.5413833,89.35251957581521,1.8283577758358165,-6.802073279367211,-0.23972648849796377,-1.1955707505405744,9.76978744615872,0.0,0.0,0.0,7.650037181161374,57.07598739730088,-109.5
1772748053.5781758,89.35251957581521,1.8283577758358165,-6.802073279367211,-0.23972648849796377,-1.1955707505405744,9.76978744615872,0.0,0.0,0.0,7.650037181161374,57.07598739730088,-109.5
1772748053.6204233,13.114048607738479,-35.44078263699486,135.76246070261735,-0.2357696339036196,-1.1971865323603248,9.76985854779301,-0.0010850969968837277,-0.0032743980313596913,0.0,6.963195087502766,56.69978374450274,-108.6875
1772748053.6436377,89.35251957581521,1.8283577758358165,-6.802073279367211,-0.23982660452347832,-1.1982735357371181,9.769905865136373,0.0,0.0,-0.001090830782496456,6.963195087502766,56.69978374450274,-108.6875
1772748053.7005146,89.35251957581521,1.8283577758358165,-6.802073279367211,-0.2425323324642706,-1.1956518177660347,9.77328246600713,0.0,0.0,-0.001090830782496456,8.398612851987107,57.8897998542268,-110.25
1772748053.7239034,89.35251957581521,1.8283577758358165,-6.802073279367211,-0.25101731802273153,-1.1972639189437186,9.772184444460198,0.0,0.0,-0.001090830782496456,8.398612851987107,57.8897998542268,-110.25
1772748053.760848,89.35251957581521,1.8283577758358165,-6.802073279367211,-0.25101731802273153,-1.1972639189437186,9.772184444460198,0.0,0.0,-0.001090830782496456,8.398612851987107,57.8897998542268,-110.25
1772748053.7927506,89.35251957581521,1.8283577758358165,-6.802073279367211,-0.25666984044099567,-1.194991647693401,9.768108611679098,3.8214081417016975e-06,-0.0021816582181925603,0.001090830782496456,7.649270854207267,57.5134867261495,-109.5
1772748053.8094158,89.35251957581521,1.8283577758358165,-6.802073279367211,-0.253741317816105,-1.1934677579340323,9.765396190493313,-0.0010889184050254293,-0.001092739813167131,0.0,7.649270854207267,57.5134867261495,-109.5
1772748053.8231783,89.35251957581521,1.8283577758358165,-6.802073279367211,-0.253741317816105,-1.1934677579340323,9.765396190493313,-0.0010889184050254293,-0.001092739813167131,0.0,7.649270854207267,57.5134867261495,-109.5
1772748053.8395538,89.35251957581521,1.8283577758358165,-6.802073279367211,-0.25179241872298147,-1.1924536263221366,9.763591104493901,-0.0010908291090962802,-1.9107040708508487e-06,0.0,7.649270854207267,57.5134867261495,-109.5
1772748053.868756,89.35251957581521,1.8283577758358165,-6.802073279367211,-0.25179241872298147,-1.1924536263221366,9.763591104493901,-0.0010908291090962802,-1.9107040708508487e-06,0.0,7.649270854207267,57.5134867261495,-109.5
1772748053.907061,89.35251957581521,1.8283577758358165,-6.802073279367211,-0.25049544814713715,-1.1917787330630123,9.765734951632744,0.0,0.0,-0.001090830782496456,7.6506940328363235,56.70098797257348,-110.25
1772748053.9264903,89.35251957581521,1.8283577758358165,-6.802073279367211,-0.24963232871702332,-1.1913295991381168,9.767161657955302,0.0,0.0,0.001090830782496456,7.6506940328363235,56.70098797257348,-110.25
1772748053.9407413,89.35251957581521,1.8283577758358165,-6.802073279367211,-0.24963232871702332,-1.1913295991381168,9.767161657955302,0.0,0.0,0.001090830782496456,7.6506940328363235,56.70098797257348,-110.25
1772748053.9933798,89.35251957581521,1.8283577758358165,-6.802073279367211,-0.24905793237795837,-1.1910307055282534,9.768111115075612,0.0010965612213088326,-0.0032705766232179897,0.0,8.77569230701851,56.702958527598334,-110.25
1772748054.0285134,89.35251957581521,1.8283577758358165,-6.802073279367211,-0.2486756780307382,-1.1908317951697498,9.768742968183046,-3.8214081417016975e-06,0.0021816582181925603,-0.001090830782496456,8.77569230701851,56.702958527598334,-110.25
1772748054.0465136,89.35251957581521,1.8283577758358165,-6.802073279367211,-0.24842129203272403,-1.1906994225481398,9.769163459367782,0.0010889184050254293,0.001092739813167131,0.0,7.398614386047387,57.88804824976027,-108.6875
1772748054.071744,89.35251957581521,1.8283577758358165,-6.802073279367211,-0.24825200099272338,-1.1906113300471575,9.76944329155403,0.0010908291090962802,1.9107040708508487e-06,0.0,7.398614386047387,57.88804824976027,-108.6875
1772748054.09441,89.35251957581521,1.8283577758358165,-6.802073279367211,-0.24813348038410013,-1.193897812047528,9.772974628455367,-0.0010870077009545785,-0.002183568922263411,0.0,7.398614386047387,57.88804824976027,-108.6875
1772748054.1239467,89.35251957581521,1.8283577758358165,-6.802073279367211,-0.24805460624302333,-1.196084929106365,9.77532469371559,-0.0010889184050254293,-0.001092739813167131,0.001090830782496456,7.649270854207267,57.5134867261495,-108.6875
1772748054.1453972,89.35251957581521,1.8283577758358165,-6.802073279367211,-0.2480021163832186,-1.1975404310773228,9.773543524186998,-0.0021816582181925603,-3.8214081417016975e-06,-0.002181661564992912,7.649270854207267,57.5134867261495,-108.6875
1772748054.1661088,89.35251957581521,1.8283577758358165,-6.802073279367211,-0.2480021163832186,-1.1975404310773228,9.773543524186998,-0.0021816582181925603,-3.8214081417016975e-06,-0.002181661564992912,7.649270854207267,57.5134867261495,-108.6875
1772748054.2017012,89.35251957581521,1.8283577758358165,-6.802073279367211,-0.24462207839215233,-1.1985031920673652,9.772358175762689,-0.0010908291090962802,-1.9107040708508487e-06,0.0,6.961771908873709,57.51228249807876,-108.25
1772748054.2325532,89.35251957581521,1.8283577758358165,-6.802073279367211,-0.2423727008665961,-1.1991438987514935,9.77156933962752,-0.0021759261059800077,-0.003276308735430542,-0.001090830782496456,6.961771908873709,57.51228249807876,-108.25
1772748054.2642193,89.35251957581521,1.8283577758358165,-6.802073279367211,-0.2408699059379242,-1.2029153884683346,9.77438948969876,0.001092739813167131,-0.0010889184050254291,0.0,6.961771908873709,57.51228249807876,-108.25
1772748054.2947385,89.35251957581521,1.8283577758358165,-6.802073279367211,-0.23988739063803513,-1.1953899530174426,9.772921156360713,-1.9107040708508487e-06,0.0010908291090962802,0.0,7.962536701767537,57.07653477369667,-109.875
1772748054.3199098,89.35251957581521,1.8283577758358165,-6.802073279367211,-0.24257278494448276,-1.19373282567782,9.7719439969266,3.8214081417016975e-06,-0.0021816582181925603,-0.002181661564992912,7.962536701767537,57.07653477369667,-109.875
1772748054.341394,89.35251957581521,1.8283577758358165,-6.802073279367211,-0.2443598848576037,-1.1926300259446265,9.771293708238783,1.9107040708508487e-06,-0.0010908291090962802,0.0,7.962536701767537,57.07653477369667,-109.875
1772748054.3720732,89.35251957581521,1.8283577758358165,-6.802073279367211,-0.2443598848576037,-1.1926300259446265,9.771293708238783,1.9107040708508487e-06,-0.0010908291090962802,0.0,7.962536701767537,57.07653477369667,-109.875
1772748054.3987901,89.35251957581521,1.8283577758358165,-6.802073279367211,-0.24554332057396405,-1.195241231616983,9.770860948381243,1.9107040708508487e-06,-0.0010908291090962802,0.002181661564992912,8.399269703662057,57.5148004294994,-111.0625
1772748054.427575,89.35251957581521,1.8283577758358165,-6.802073279367211,-0.24298577724764234,-1.1969731005102497,9.767227839822974,0.0010908291090962802,1.9107040708508487e-06,-0.001090830782496456,8.399269703662057,57.5148004294994,-111.0625
1772748054.4628625,89.35251957581521,1.8283577758358165,-6.802073279367211,-0.24298577724764234,-1.1969731005102497,9.767227839822974,0.0010908291090962802,1.9107040708508487e-06,-0.001090830782496456,8.399269703662057,57.5148004294994,-111.0625
1772748054.4999957,89.35251957581521,1.8283577758358165,-6.802073279367211,-0.2412954793588213,-1.1914354267610427,9.764810046661928,1.9107040708508487e-06,-0.0010908291090962802,0.001090830782496456,6.962538235827816,57.07478316923014,-109.5
1772748054.528759,89.35251957581521,1.8283577758358165,-6.802073279367211,-0.24017060499567552,-1.1877501667408148,9.76654614402909,-3.8214081417016975e-06,0.0021816582181925603,-0.002181661564992912,6.962538235827816,57.07478316923014,-109.5
1772748054.554294,89.35251957581521,1.8283577758358165,-6.802073279367211,-0.2427612609357808,-1.1886486332527286,9.774391720848099,-1.9107040708508487e-06,0.0010908291090962802,0.0,6.962538235827816,57.07478316923014,-109.5
1772748054.5934188,89.35251957581521,1.8283577758358165,-6.802073279367211,-0.2427612609357808,-1.1886486332527286,9.774391720848099,-1.9107040708508487e-06,0.0010908291090962802,0.0,6.962538235827816,57.07478316923014,-109.5
1772748054.6226275,89.35251957581521,1.8283577758358165,-6.802073279367211,-0.24448531352439778,-1.1892465526798788,9.776267752872993,0.001092739813167131,-0.0010889184050254291,0.001090830782496456,7.649270854207267,57.5134867261495,-110.6875
1772748054.6707726,89.35251957581521,1.8283577758358165,-6.802073279367211,-0.24448531352439778,-1.1892465526798788,9.776267752872993,0.001092739813167131,-0.0010889184050254291,0.001090830782496456,7.649270854207267,57.5134867261495,-110.6875
1772748054.728914,89.35251957581521,1.8283577758358165,-6.802073279367211,-0.24563265126319309,-1.1896444613794497,9.780861342936229,0.0,0.0,-0.002181661564992912,7.649270854207267,57.5134867261495,-110.6875
1772748054.7581823,89.35251957581521,1.8283577758358165,-6.802073279367211,-0.24305108513604262,-1.1899034058614752,9.78057321410223,1.9107040708508487e-06,-0.0010908291090962802,-0.001090830782496456,7.96177037481343,57.514034102545295,-109.875
1772748054.789983,89.35251957581521,1.8283577758358165,-6.802073279367211,-0.24133894102901482,-1.1867306239459472,9.777036355874493,-1.9107040708508487e-06,0.0010908291090962802,-0.001090830782496456,7.96177037481343,57.514034102545295,-109.875
1772748054.8447862,89.35251957581521,1.8283577758358165,-6.802073279367211,-0.243544634827407,-1.1846250323360672,9.77133750452591,0.0,0.0,0.0,6.587538811100422,57.07412631755519,-109.5
1772748054.9049199,89.35251957581521,1.8283577758358165,-6.802073279367211,-0.24500664009841527,-1.1865688912164079,9.767544982613769,-0.0010889184050254293,-0.001092739813167131,-0.002181661564992912,6.587538811100422,57.07412631755519,-109.5
1772748054.9441054,89.35251957581521,1.8283577758358165,-6.802073279367211,-0.24500664009841527,-1.1865688912164079,9.767544982613769,-0.0010889184050254293,-0.001092739813167131,-0.002181661564992912,6.587538811100422,57.07412631755519,-109.5
1772748054.977717,89.35251957581521,1.8283577758358165,-6.802073279367211,-0.24932469485031866,-1.1878683668995558,9.775056436768443,-0.0010850969968837277,-0.0032743980313596913,0.0,7.648614002532318,57.8884861508769,-110.25
1772748054.9992979,89.35251957581521,1.8283577758358165,-6.802073279367211,-0.2455080989004455,-1.188721434825381,9.780055225599938,0.0,0.0,0.0,7.648614002532318,57.8884861508769,-110.25
1772748055.0355933,89.35251957581521,1.8283577758358165,-6.802073279367211,-0.2455080989004455,-1.188721434825381,9.780055225599938,0.0,0.0,0.0,7.648614002532318,57.8884861508769,-110.25
1772748055.0932922,89.35251957581521,1.8283577758358165,-6.802073279367211,-0.24632502213090676,-1.1826047881617994,9.776691640312528,0.0,0.0,-0.001090830782496456,6.588195662775371,56.69912689282779,-108.25
1772748055.1178718,89.35251957581521,1.8283577758358165,-6.802073279367211,-0.24351185021421673,-1.1852185819734313,9.774453211877468,-0.0021816582181925603,-3.8214081417016975e-06,0.0,6.588195662775371,56.69912689282779,-108.25
1772748055.1721282,89.35251957581521,1.8283577758358165,-6.802073279367211,-0.24499068161717288,-1.1836187852939732,9.772963562758818,0.0010908291090962802,1.9107040708508487e-06,-0.002181661564992912,6.962538235827816,57.07478316923014,-109.875
1772748055.219371,89.35251957581521,1.8283577758358165,-6.802073279367211,-0.24499068161717288,-1.1836187852939732,9.772963562758818,0.0010908291090962802,1.9107040708508487e-06,-0.002181661564992912,6.962538235827816,57.07478316923014,-109.875
1772748055.359193,89.35251957581521,1.8283577758358165,-6.802073279367211,-0.245974827396211,-1.182554138474694,9.771972217910829,1.9107040708508487e-06,-0.0010908291090962802,-0.001090830782496456,7.397410157976647,58.575547195093826,-110.75
1772748055.406169,89.35251957581521,1.8283577758358165,-6.802073279367211,-0.24662976541853218,-1.181845627909348,9.771312488988539,0.0010889184050254293,0.001092739813167131,-0.001090830782496456,7.397410157976647,58.575547195093826,-110.75
1772748055.4455893,89.35251957581521,1.8283577758358165,-6.802073279367211,-0.2504048666193586,-1.1847250879310158,9.77087344676041,-0.0010908291090962802,-1.9107040708508487e-06,0.001090830782496456,7.649270854207267,57.5134867261495,-109.5
1772748055.5051546,89.35251957581521,1.8283577758358165,-6.802073279367211,-0.2495720477221487,-1.186635477097152,9.780616604183972,-1.9107040708508487e-06,0.0010908291090962802,0.0,7.649270854207267,57.5134867261495,-109.5
1772748055.555294,89.35251957581521,1.8283577758358165,-6.802073279367211,-0.24902367536185976,-1.1845617131710542,9.787100566611153,0.001092739813167131,-0.0010889184050254291,0.0,7.649270854207267,57.5134867261495,-109.0625
1772748055.5800257,89.35251957581521,1.8283577758358165,-6.802073279367211,-0.24196852653037532,-1.1831699278184817,9.788070459468516,-5.732112212552546e-06,0.0032724873272888403,0.001090830782496456,7.649270854207267,57.5134867261495,-109.0625
1772748055.623485,89.35251957581521,1.8283577758358165,-6.802073279367211,-0.24196852653037532,-1.1831699278184817,9.788070459468516,-5.732112212552546e-06,0.0032724873272888403,0.001090830782496456,7.649270854207267,57.5134867261495,-109.0625
1772748055.665687,89.35251957581521,1.8283577758358165,-6.802073279367211,-0.2372734037941988,-1.1822437102136056,9.782025688916038,1.9107040708508487e-06,-0.0010908291090962802,0.001090830782496456,7.399271237722337,57.513048825032875,-109.5
1772748055.7446382,89.35251957581521,1.8283577758358165,-6.802073279367211,-0.2372734037941988,-1.1822437102136056,9.782025688916038,1.9107040708508487e-06,-0.0010908291090962802,0.001090830782496456,7.399271237722337,57.513048825032875,-109.5
1772748055.7699263,89.35251957581521,1.8283577758358165,-6.802073279367211,-0.23414299274862327,-1.1849724293198058,9.778002961637876,3.8214081417016975e-06,-0.0021816582181925603,0.0,7.399271237722337,57.513048825032875,-109.5
1772748055.8151882,89.35251957581521,1.8283577758358165,-6.802073279367211,-0.23874995231820814,-1.1868000800284075,9.775325881571067,-0.0021797475141217093,-0.0010946505172379818,0.0,7.648614002532318,57.8884861508769,-109.5
1772748055.8831885,89.35251957581521,1.8283577758358165,-6.802073279367211,-0.24516093902437286,-1.1880222204713933,9.77019920298423,-0.0010908291090962802,-1.9107040708508487e-06,-0.001090830782496456,7.648614002532318,57.8884861508769,-109.5
1772748055.9191477,89.35251957581521,1.8283577758358165,-6.802073279367211,-0.24608813179880273,-1.185484575395673,9.766787455653443,-1.9107040708508487e-06,0.0010908291090962802,0.001090830782496456,7.96177037481343,57.514034102545295,-109.875
1772748055.9455144,89.35251957581521,1.8283577758358165,-6.802073279367211,-0.24608813179880273,-1.185484575395673,9.766787455653443,-1.9107040708508487e-06,0.0010908291090962802,0.001090830782496456,7.96177037481343,57.514034102545295,-109.875
1772748055.9873095,89.35251957581521,1.8283577758358165,-6.802073279367211,-0.24710993977420884,-1.1860170469888636,9.76857724319571,-0.001092739813167131,0.0010889184050254291,-0.001090830782496456,7.6506940328363235,56.70098797257348,-110.25
1772748056.0426502,89.35251957581521,1.8283577758358165,-6.802073279367211,-0.24710993977420884,-1.1860170469888636,9.76857724319571,-0.001092739813167131,0.0010889184050254291,-0.001090830782496456,7.6506940328363235,56.70098797257348,-110.25
1772748056.070885,89.35251957581521,1.8283577758358165,-6.802073279367211,-0.24737931071344604,-1.1874952614180214,9.76570805953266,0.0010946505172379818,-0.0021797475141217093,0.0,7.6506940328363235,56.70098797257348,-110.25
1772748056.0857315,89.35251957581521,1.8283577758358165,-6.802073279367211,-0.24755271475183027,-1.1918241031836052,9.763798649855783,0.0010870077009545785,0.002183568922263411,0.001090830782496456,8.399269703662057,57.5148004294994,-109.5
1772748056.1033354,89.35251957581521,1.8283577758358165,-6.802073279367211,-0.24755271475183027,-1.1918241031836052,9.763798649855783,0.0010870077009545785,0.002183568922263411,0.001090830782496456,8.399269703662057,57.5148004294994,-109.5
1772748056.1322553,89.35251957581521,1.8283577758358165,-6.802073279367211,-0.24767983182754014,-1.1880146858708374,9.762527959045324,0.0010946505172379818,-0.0021797475141217093,0.0,8.399269703662057,57.5148004294994,-109.5
1772748056.1588037,89.35251957581521,1.8283577758358165,-6.802073279367211,-0.24767983182754014,-1.1880146858708374,9.762527959045324,0.0010946505172379818,-0.0021797475141217093,0.0,8.399269703662057,57.5148004294994,-109.5
1772748056.1972163,89.35251957581521,1.8283577758358165,-6.802073279367211,-0.24780120660549257,-1.1949349393251691,9.768916951482645,0.0010889184050254293,0.001092739813167131,0.001090830782496456,7.96111352313848,57.88903352727269,-111.0625
1772748056.4236805,89.35251957581521,1.8283577758358165,-6.802073279367211,-0.2478742118352935,-1.2019575189364842,9.773132684083196,0.0021816582181925603,3.8214081417016975e-06,0.002181661564992912,7.401241792747184,56.388050550850686,-109.5
1772748056.497785,89.35251957581521,1.8283577758358165,-6.802073279367211,-0.24787620660740442,-1.2047936805838566,9.775429877970312,0.0010889184050254293,0.001092739813167131,0.0,7.962536701767537,57.07653477369667,-111.0625
1772748056.5582783,89.35251957581521,1.8283577758358165,-6.802073279367211,-0.24787753410596117,-1.2066811144781813,9.773613523133532,-0.0021778368100508587,-0.002185479626334262,0.001090830782496456,8.400036030616164,57.07730110065078,-110.6875
1772748056.6232224,89.35251957581521,1.8283577758358165,-6.802073279367211,-0.2478842768540291,-1.2045920740751201,9.772404759279667,-0.0010908291090962802,-1.9107040708508487e-06,0.001090830782496456,8.400036030616164,57.07730110065078,-110.6875
1772748056.6508446,89.35251957581521,1.8283577758358165,-6.802073279367211,-0.2478842768540291,-1.2045920740751201,9.772404759279667,-0.0010908291090962802,-1.9107040708508487e-06,0.001090830782496456,8.400036030616164,57.07730110065078,-110.6875
1772748056.6909518,89.35251957581521,1.8283577758358165,-6.802073279367211,-0.2478946233901545,-1.199856734447277,9.771600340437697,-3.8214081417016975e-06,0.0021816582181925603,-0.001090830782496456,7.398614386047387,57.88804824976027,-109.5
1772748056.7103543,89.35251957581521,1.8283577758358165,-6.802073279367211,-0.24790150889436757,-1.1967054188221569,9.771065008684314,5.732112212552546e-06,-0.0032724873272888403,0.002181661564992912,7.398614386047387,57.88804824976027,-109.5
1772748056.7788262,89.35251957581521,1.8283577758358165,-6.802073279367211,-0.24790150889436757,-1.1967054188221569,9.771065008684314,5.732112212552546e-06,-0.0032724873272888403,0.002181661564992912,7.398614386047387,57.88804824976027,-109.5
1772748056.9028947,89.35251957581521,1.8283577758358165,-6.802073279367211,-0.2479060911205052,-1.1946082534761413,9.774053863089803,-1.9107040708508487e-06,0.0010908291090962802,0.0,8.400692882291114,56.70230167592338,-110.25
1772748056.962051,89.35251957581521,1.8283577758358165,-6.802073279367211,-0.24791499985342064,-1.1898675067895237,9.776042912308965,-1.9107040708508487e-06,0.0010908291090962802,0.0,8.77503545534356,57.077957952325725,-110.25
1772748057.0162423,89.35251957581521,1.8283577758358165,-6.802073279367211,-0.24791499985342064,-1.1898675067895237,9.776042912308965,-1.9107040708508487e-06,0.0010908291090962802,0.0,8.77503545534356,57.077957952325725,-110.25
1772748057.0477934,89.35251957581521,1.8283577758358165,-6.802073279367211,-0.24792092851565878,-1.18671259282719,9.777366602345182,0.0010908291090962802,1.9107040708508487e-06,0.0,8.77503545534356,57.077957952325725,-110.25
1772748057.0754,89.35251957581521,1.8283577758358165,-6.802073279367211,-0.25126998054986716,-1.1846188921405627,9.781592614985017,1.9107040708508487e-06,-0.0010908291090962802,0.0,7.400037564676444,57.075549496184244,-110.5625
1772748057.1223557,89.35251957581521,1.8283577758358165,-6.802073279367211,-0.25014777137894634,-1.18656480498489,9.777714755774534,1.9107040708508487e-06,-0.0010908291090962802,0.001090830782496456,7.400037564676444,57.075549496184244,-110.5625
1772748057.1483626,89.35251957581521,1.8283577758358165,-6.802073279367211,-0.25014777137894634,-1.18656480498489,9.777714755774534,1.9107040708508487e-06,-0.0010908291090962802,0.001090830782496456,7.400037564676444,57.075549496184244,-110.5625
1772748057.2288795,89.35251957581521,1.8283577758358165,-6.802073279367211,-0.25014777137894634,-1.18656480498489,9.777714755774534,1.9107040708508487e-06,-0.0010908291090962802,0.001090830782496456,7.400037564676444,57.075549496184244,-110.5625
1772748057.297663,89.76164091398809,1.8375899513002523,-6.89955155187712,-0.24889809558386727,-1.1920666917152736,9.770071563702443,-0.010898737570608547,-0.005473252586189909,-0.003272492347489368,7.649270854207267,57.5134867261495,-109.0625
1772748057.4537976,89.75227014626495,1.8471431035877741,-6.83060779895574,-0.2586104874695213,-1.188193703766594,9.770047624844556,-0.01086243419326238,-0.026199005659019232,0.044724062082354694,6.589947267241903,55.69912842688807,-110.25
1772748057.549011,90.12156088920656,1.854411095195622,-6.948383446308556,-0.2747870333086297,-1.3696147131530818,9.669678342582467,-0.0109082910909628,-1.9107040708508486e-05,0.05781403147231216,8.39664229696226,59.014798128408984,-107.5
1772748057.6701686,90.82814527698051,1.8777921158403101,-6.986470951215962,-0.27580998976392923,-1.3230754615706837,9.673131052289099,0.0033183442249892607,-0.02617416650609817,0.24107360293171676,8.39664229696226,59.014798128408984,-107.5
1772748057.7156186,13.181957411105056,-36.524600131304766,136.55430360506261,-0.2630400178036021,-1.332221951178268,9.67542879202957,-0.008711347240203435,-0.008741918505337048,0.17671458676442586,7.398067009651596,58.20054777036643,-107.0625
1772748057.80713,13.181957411105056,-36.524600131304766,136.55430360506261,-0.2630400178036021,-1.332221951178268,9.67542879202957,-0.008711347240203435,-0.008741918505337048,0.17671458676442586,7.398067009651596,58.20054777036643,-107.0625
1772748057.971121,94.42993345710023,1.9904457396628827,-6.997758683075444,-0.24888623790540398,-1.3423595929169576,9.750401724879966,9.553520354254243e-06,-0.0054541455454814,0.17998707911191522,5.4584899515893825,59.38465221501594,-107.0625
1772748058.0375485,95.30496467061613,2.0390995069818683,-6.98739950938385,-0.2785326122686791,-1.368529664327442,9.770338013663974,-0.007616696722965452,-0.010921666019458756,0.20289452554434081,5.4584899515893825,59.38465221501594,-104.6875
1772748058.0881248,96.21576407710711,2.0676469574462732,-7.022123761162913,-0.29506331947521103,-1.3023120308067495,9.753499385780918,-0.0021682832896966044,-0.007639625171815662,0.1461713248545251,5.459146803264332,59.00965279028855,-104.25
1772748058.1435397,96.74288777896966,2.05515597565282,-7.010211147787458,-0.30594713420890735,-1.3251470669124903,9.718877685073307,-0.008675043862857269,-0.029467671578166366,0.20180369476184434,5.459146803264332,59.00965279028855,-104.25
1772748058.1921332,96.74288777896966,2.05515597565282,-7.010211147787458,-0.30594713420890735,-1.3251470669124903,9.718877685073307,-0.008675043862857269,-0.029467671578166366,0.20180369476184434,5.459146803264332,59.00965279028855,-104.25
1772748058.2559786,97.62730237479099,2.0445525203680575,-6.993119391336331,-0.29980976503113976,-1.340320091106363,9.69583733000213,-0.00979453353301631,-0.013107145645793019,0.19198621771937624,3.955317469584215,61.19452202783189,-103.5
1772748058.2992222,98.36348891695167,2.0363412967391867,-6.999062401137648,-0.2507225531909533,-1.3503730281116482,9.772879710722536,-0.004334655875322358,-0.0163700794527276,0.19198621771937624,4.392816798432842,61.195288354785994,-102.25
1772748058.33322,98.66043438570335,2.0506147835101634,-7.00877615108074,-0.21960133434140738,-1.3403059825494716,9.83212842604912,-0.0032476481743677794,-0.014186510530464195,0.1810779098944117,4.392816798432842,61.195288354785994,-102.25
1772748058.3481004,98.86405277541944,2.053184551630123,-7.0058437347420135,-0.21960133434140738,-1.3403059825494716,9.83212842604912,-0.0032457374702969284,-0.015277339639560473,0.18544123302439752,4.392816798432842,61.195288354785994,-102.25
1772748058.3734689,98.86405277541944,2.053184551630123,-7.0058437347420135,-0.21960133434140738,-1.3403059825494716,9.83212842604912,-0.0032457374702969284,-0.015277339639560473,0.18544123302439752,4.392816798432842,61.195288354785994,-102.25
1772748058.3938596,99.17793628826148,2.0427550764059763,-7.002562978428349,-0.19891394809425827,-1.3202260498812448,9.84814200229621,-0.00215872976934235,-0.013093770717297063,0.17780541754692233,4.392816798432842,61.195288354785994,-104.25
1772748058.4210064,99.50084974966111,2.0435319827018494,-7.0081615953667376,-0.18514672364002682,-1.3068630789980853,9.818657517917448,-0.008690329495424075,-0.02074103870539613,0.19744037163185854,4.392816798432842,61.195288354785994,-104.25
1772748058.5077229,99.50084974966111,2.0435319827018494,-7.0081615953667376,-0.18514672364002682,-1.3068630789980853,9.818657517917448,-0.008690329495424075,-0.02074103870539613,0.19744037163185854,4.392816798432842,61.195288354785994,-104.25
1772748058.593713,100.62789724232364,2.0110394725476817,-6.967373953058844,-0.2027456421614407,-1.2980170456503688,9.778965252682736,-0.009783069308591205,-0.0196521203003707,0.17780541754692233,3.9541132415134745,61.882020973165446,-101.875
1772748058.6850455,102.23772352533152,1.9793041769263457,-7.031887911848294,-0.23120649597365273,-1.2787789795343032,9.752550493560692,-0.02506423035629338,-0.014224724611881212,0.16471544815696484,2.452692363974838,62.69189232004167,-100.25
1772748058.7473872,103.1998160351175,1.9835765110397308,-7.016209200633756,-0.23347407719199753,-1.235841005692856,9.761732660095719,-0.00324955887843863,-0.013095681421367914,0.20180369476184434,2.452692363974838,62.69189232004167,-100.25
1772748058.7927372,103.64425514750212,1.98566122069626,-7.006652910529981,-0.23498312716226405,-1.2072662637499685,9.777878624475216,0.002212229483326174,-0.01744944433739878,0.20180369476184434,3.639643165882464,63.006471870951835,-98.5625
1772748058.806631,103.88414427630006,1.985005801048823,-6.99943088114516,-0.22925029540799027,-1.2149992261682752,9.788623583407531,0.0011233110783007447,-0.01854218415056591,0.210530341021816,3.639643165882464,63.006471870951835,-98.5625
1772748058.822139,103.88414427630006,1.985005801048823,-6.99943088114516,-0.22925029540799027,-1.2149992261682752,9.788623583407531,0.0011233110783007447,-0.01854218415056591,0.210530341021816,3.639643165882464,63.006471870951835,-98.5625
1772748058.8413851,104.13814712959946,1.9850649637523021,-6.991557250202823,-0.2220783347145163,-1.2268297801136332,9.815844903791849,0.012033512873334396,-0.019613906218953682,0.22907446432425577,3.639643165882464,63.006471870951835,-98.5625
1772748058.8651814,104.49833705056668,1.9905253654527686,-6.972748802231534,-0.21731719361427493,-1.2280126684568893,9.813889718181622,0.0033107014087058574,-0.021810850069713048,-35.533812739822054,1.7627849624998,64.06568598263804,-99.0625
1772748058.8792381,104.846848197084,2.001827942826998,-6.967646134362264,-0.22757014888861388,-1.2054075586560136,9.849384792779384,-0.001054525731750114,-0.020727663776900173,0.20398535632683726,1.7627849624998,64.06568598263804,-99.0625
1772748058.9291067,105.33891784163157,1.97423281350516,-6.976957338740111,-0.23439337609067148,-1.1903641105991527,9.802759022564524,0.0011347753027258496,-0.025087158805143592,0.22907446432425577,0.9502862089237778,64.06426280400899,-97.875
1772748058.9563284,105.33891784163157,1.97423281350516,-6.976957338740111,-0.23439337609067148,-1.1903641105991527,9.802759022564524,0.0011347753027258496,-0.025087158805143592,0.22907446432425577,0.9502862089237778,64.06426280400899,-97.875
1772748058.9771144,105.72344492261708,1.9680788074431501,-6.973892206558846,-0.2288343854073662,-1.2171314583586947,9.741624087964642,0.008776311178612363,-0.028346271203936475,0.22580197197676638,0.9502862089237778,64.06426280400899,-97.875
1772748058.9943318,105.72344492261708,1.9680788074431501,-6.973892206558846,-0.2288343854073662,-1.2171314583586947,9.741624087964642,0.008776311178612363,-0.028346271203936475,0.22580197197676638,0.9502862089237778,64.06426280400899,-97.875
1772748059.0155346,106.54462187060048,1.9802492626568475,-6.940386935667666,-0.22271401427213502,-1.2233836826127262,9.730731213427648,-0.0032438267662260774,-0.016368168748656754,0.19525871006686563,2.138441238902144,63.6913434095856,-97.5
1772748059.0773916,106.54462187060048,1.9802492626568475,-6.940386935667666,-0.22271401427213502,-1.2233836826127262,9.730731213427648,-0.0032438267662260774,-0.016368168748656754,0.19525871006686563,2.138441238902144,63.6913434095856,-97.5
1772748059.1058342,107.4400771434344,2.013409182794654,-6.918038799362964,-0.20437738289382146,-1.2156605720878877,9.750557284611826,0.00984039043071673,-0.013072752972517704,0.24107360293171676,0.6370203613635077,64.50121475646182,-96.6875
1772748059.1448386,108.03965153929252,2.048000778695702,-6.897471858051557,-0.19215112229471726,-1.2239013546092705,9.757061090098532,-0.007618607427036303,-0.009830836910362477,0.20725784867432664,0.6370203613635077,64.50121475646182,-96.6875
1772748059.1871622,108.03965153929252,2.048000778695702,-6.897471858051557,-0.19215112229471726,-1.2239013546092705,9.757061090098532,-0.007618607427036303,-0.009830836910362477,0.20725784867432664,0.6370203613635077,64.50121475646182,-96.6875
1772748059.2610946,109.59052434212768,2.0688238675475525,-6.886547953965308,-0.2076395887388767,-1.1962897237989463,9.757591271914643,-0.011970459638996319,-0.01638345438122356,0.19525871006686563,0.38778707183268535,64.06327752649656,-94.6875
1772748059.3319826,109.59052434212768,2.0688238675475525,-6.886547953965308,-0.2076395887388767,-1.1962897237989463,9.757591271914643,-0.011970459638996319,-0.01638345438122356,0.19525871006686563,0.38778707183268535,64.06327752649656,-94.6875
1772748059.3659065,110.4709476666353,2.070719941186502,-6.894705342073211,-0.21445717573635623,-1.1742492550022992,9.788503023732325,3.821408141701697e-05,-0.0218165821819256,0.19744037163185854,0.3863638932036285,64.87577628007259,-93.0625
1772748059.4087055,110.4709476666353,2.070719941186502,-6.894705342073211,-0.21445717573635623,-1.1742492550022992,9.788503023732325,3.821408141701697e-05,-0.0218165821819256,0.19744037163185854,0.3863638932036285,64.87577628007259,-93.0625
1772748059.4549778,111.22160946657306,2.067143660405263,-6.889960681802825,-0.21899420372574205,-1.1595815692262992,9.832490231211334,0.002206497371113621,-0.01417695701010994,0.1636246173744684,0.3863638932036285,64.87577628007259,-93.0625
1772748059.480626,111.58332091923037,2.098668053883065,-6.881694105079458,-0.1919017266766998,-1.1531127609534053,9.861763226419312,0.014192242642676746,-0.00652013550165662,0.15926129424448257,0.9483156538989298,65.18926107819117,-91.5
1772748059.5220106,111.58332091923037,2.098668053883065,-6.881694105079458,-0.1919017266766998,-1.1531127609534053,9.861763226419312,0.014192242642676746,-0.00652013550165662,0.15926129424448257,0.9483156538989298,65.18926107819117,-91.5
1772748059.554261,112.14804540506243,2.117082337430658,-6.869388960916029,-0.1738719858433609,-1.1488078413091176,9.87789896602212,-0.008696061607636628,-0.017468551378107287,0.13744467859455345,0.9483156538989298,65.18926107819117,-91.5
1772748059.6131122,112.61877042530213,2.1084261024175452,-6.878230274756568,-0.1618558167863528,-1.1559782851020965,9.818389774626059,-0.002145354840846394,-0.020729574480971024,0.16907877128695067,-0.052339663715739296,65.56250889845204,-90.6875
1772748059.6302876,112.61877042530213,2.1084261024175452,-6.878230274756568,-0.1618558167863528,-1.1559782851020965,9.818389774626059,-0.002145354840846394,-0.020729574480971024,0.16907877128695067,-0.052339663715739296,65.56250889845204,-90.6875
1772748059.6506293,112.8909687029761,2.109146742040145,-6.871050957581303,-0.20733402121891878,-1.1876047369546712,9.842344194952274,-0.008696061607636628,-0.017468551378107287,0.1559888018969932,-0.052339663715739296,65.56250889845204,-90.6875
1772748059.701048,113.33650043021603,2.099044863582296,-6.880450309330034,-0.21417179358873084,-1.2153009853351233,9.81145403018849,-0.01088727334618344,-0.01201822724076759,0.12544553998709243,-0.36680973934674965,66.68695979623843,-89.875
1772748059.7362738,113.62137179860177,2.075570304357644,-6.898889622271014,-0.24544795144800408,-1.2538500432001067,9.837728534506413,3.057126513361358e-05,-0.017453265745540483,0.11671889372712078,-0.36680973934674965,66.68695979623843,-89.875
1772748059.7843573,113.96603243647024,2.0633965443886906,-6.904515219166281,-0.23948931389482875,-1.2861473492386335,9.83179814167331,-0.006516314093514918,-0.016373900860869303,0.10471975511965978,0.3843933381787806,66.00077455425478,-87.875
1772748059.8244128,113.96603243647024,2.0633965443886906,-6.904515219166281,-0.23948931389482875,-1.2861473492386335,9.83179814167331,-0.006516314093514918,-0.016373900860869303,0.10471975511965978,0.3843933381787806,66.00077455425478,-87.875
1772748059.871182,114.2914811268235,2.0463675186668446,-6.916669618409063,-0.23553562579074852,-1.300950632471292,9.82785153148971,0.004376691364881077,-0.007628160947390558,0.10471975511965978,0.3843933381787806,66.00077455425478,-87.875
1772748059.9074113,114.57555638993838,2.040355191329937,-6.921611385375207,-0.22288088942113918,-1.304094261009862,9.785083766011216,0.001104204037592236,-0.00763389305960311,0.09817477042468103,-1.4912606371331434,66.37248972060742,-86.25
1772748059.9342995,114.71698404722326,2.048893277576411,-6.9190610765581395,-0.22452392002001892,-1.2894783557448897,9.756622295832521,-0.006539242542365128,-0.0032839515517139456,0.08944812416470939,-1.4912606371331434,66.37248972060742,-86.25
1772748059.9593117,114.71698404722326,2.048893277576411,-6.9190610765581395,-0.22452392002001892,-1.2894783557448897,9.756622295832521,-0.006539242542365128,-0.0032839515517139456,0.08944812416470939,-1.4912606371331434,66.37248972060742,-86.25
1772748060.0325725,114.89966524741388,2.050260925967146,-6.917939569642778,-0.22899174166847336,-1.2630319604954359,9.784513069266525,0.002198854554830218,-0.009813640573724818,0.08290313946973066,-0.36626236295095854,66.37446027563226,-86.25
1772748060.052232,115.16268409363192,2.0758587752595443,-6.911219331548059,-0.23531013364239817,-1.245438039195124,9.826489849377738,-0.011995298791917379,-0.0022026759629719195,0.04690572364734761,-0.36626236295095854,66.37446027563226,-86.25
1772748060.0842733,115.16268409363192,2.0758587752595443,-6.911219331548059,-0.23531013364239817,-1.245438039195124,9.826489849377738,-0.011995298791917379,-0.0022026759629719195,0.04690572364734761,-0.36626236295095854,66.37446027563226,-86.25
1772748060.1497033,115.8140279910634,2.1388519550999456,-6.914150120483986,-0.2367712721067764,-1.2092022749938156,9.88639585698154,-0.005444592025127146,-0.0054636990658356544,0.061086523819801536,-1.48655320012934,63.68499384339442,-86.0
1772748060.2335496,116.09284418515091,2.157939481435692,-6.918656241275712,-0.23707190591903227,-1.2497504044067718,9.864185701130895,0.0011099361498047888,-0.01090638038689195,0.10035643198967395,-2.3031025390342164,65.99606711725096,-83.5
1772748060.283467,116.21597991828443,2.1498209484738626,-6.914999981113724,-0.27081678912167406,-1.2232716194934234,9.859440425637946,0.0032954157761390505,-0.01308421719694281,0.0545415391248228,-2.3031025390342164,65.99606711725096,-83.5
1772748060.3496644,116.61030042219726,2.184094774756685,-6.930390415592579,-0.2931564456858359,-1.2725524154353263,9.84624716268363,-0.013078485084730257,-0.006567903103427891,0.11562806294462433,-2.6110040979157336,63.37052376776341,-83.5
1772748060.4001513,116.61030042219726,2.184094774756685,-6.930390415592579,-0.2931564456858359,-1.2725524154353263,9.84624716268363,-0.013078485084730257,-0.006567903103427891,0.11562806294462433,-2.6110040979157336,63.37052376776341,-83.5
1772748060.4660103,116.69206996751879,2.195550764919566,-6.891852524994829,-0.3079412072024642,-1.3521797266921305,9.847502528687896,0.01854027344649506,0.0022141401873970244,-0.038179077387375956,-2.6110040979157336,63.37052376776341,-83.5
1772748060.4896724,116.70981243022527,2.230535420153009,-6.862928781111425,-0.2241173167151141,-1.4050067520851726,9.878443966106252,0.002174015401909157,0.004367137844526822,0.055632369907319255,-1.4898374585040866,65.5599909670314,-81.875
1772748060.5160744,116.77571229571963,2.234476196186205,-6.86162222561892,-0.34896920905867784,-1.4404789502485118,9.899035147069664,5.732112212552546e-06,-0.0032724873272888403,0.016362461737446838,-1.4898374585040866,65.5599909670314,-81.875
1772748060.532586,116.77571229571963,2.234476196186205,-6.86162222561892,-0.34896920905867784,-1.4404789502485118,9.899035147069664,5.732112212552546e-06,-0.0032724873272888403,0.016362461737446838,-1.4898374585040866,65.5599909670314,-81.875
1772748060.5596292,116.70970825719894,2.234209748630947,-6.856989451221455,-0.2983462346993643,-1.4103292241600316,9.916083459689572,0.014175046306039088,0.0032973264802099015,-0.030543261909900768,-1.4906037854581942,65.99749029588003,-80.25
1772748060.6471364,116.70811505087768,2.263037333807921,-6.850203163531441,-0.2646572107589175,-1.3902649182426563,9.927428921295991,-0.0010831862928128767,-0.004365227140455971,0.026179938779914945,-1.4906037854581942,65.99749029588003,-80.25
1772748060.6818771,116.37726439748135,2.268229156112704,-6.963152192953513,-0.24239574309801085,-1.2865944692432836,9.934979199257953,-0.0251139086621355,0.014136832224622071,-0.11999138607461016,-1.115604360730799,65.99814714755497,-77.0625
1772748060.7538247,116.12220514912185,2.271987650724553,-6.963624296729651,-0.2644884843189896,-1.1541103710090688,9.893172260997035,0.015273518231418773,-0.001064079252104368,-0.11780972450961724,-1.115604360730799,65.99814714755497,-77.0625
1772748060.774049,115.80376407607304,2.2220657805869624,-6.991883218845665,-0.27907962986991686,-1.1295007085171578,9.795102864744788,-0.008762936250116407,0.020710467440262517,-0.10799224746714914,-0.050478583970049576,64.50001052839109,-76.6875
1772748060.8027086,115.80376407607304,2.2220657805869624,-6.991883218845665,-0.27907962986991686,-1.1295007085171578,9.795102864744788,-0.008762936250116407,0.020710467440262517,-0.10799224746714914,-0.050478583970049576,64.50001052839109,-76.6875
1772748060.8656237,115.12688293272063,2.153849173294071,-7.020991871759354,-0.27953019119778266,-1.1679564188528573,9.703119994273425,-0.0010984719253796836,0.00436140573231427,-0.1439896632895322,0.3863638932036285,64.87577628007259,-76.6875
1772748060.9099264,115.12688293272063,2.153849173294071,-7.020991871759354,-0.27953019119778266,-1.1679564188528573,9.703119994273425,-0.0010984719253796836,0.00436140573231427,-0.1439896632895322,0.3863638932036285,64.87577628007259,-76.6875
1772748060.9684393,114.63708325755624,2.112465956035457,-7.047847355676045,-0.2756214017788989,-1.1888682600720255,9.67866053938511,0.0032591123987928843,0.007641535875886513,-0.1308996938995747,-0.36221177762210444,64.06196382314667,-75.875
1772748061.0375242,114.17228530257871,2.0855740904689393,-7.040787218830939,-0.27302014608467046,-1.2027848568028094,9.715904832704059,-0.008749561321620452,0.013074663676588555,-0.09381144729469522,-0.36221177762210444,64.06196382314667,-75.875
1772748061.0569239,114.17228530257871,2.0855740904689393,-7.040787218830939,-0.27302014608467046,-1.2027848568028094,9.715904832704059,-0.008749561321620452,0.013074663676588555,-0.09381144729469522,-0.36221177762210444,64.06196382314667,-75.875
1772748061.1041746,113.90366500738446,2.0866827222098325,-7.057165751131987,-0.27132419535373703,-1.191975557014276,9.730655158739845,-0.01092930883574216,0.011980013159350572,-0.12435470920459599,-0.3590369945265161,62.24946660363092,-75.0625
1772748061.1429179,113.56545098158414,2.048358486557949,-7.076684353957229,-0.24683840618337308,-1.1512900078073807,9.750506671066681,0.0021759261059800077,0.003276308735430542,-0.10035643198967395,-0.3590369945265161,62.24946660363092,-75.0625
1772748061.1704838,113.75417558616643,2.020000589557641,-7.0681885430814475,-0.22044947416145796,-1.1576477171168968,9.753682295642308,0.009821283390008222,-0.0021644618815549023,-0.10471975511965978,-0.04850802894520163,63.3750122542089,-73.875
1772748061.2854989,113.75417558616643,2.020000589557641,-7.0681885430814475,-0.22044947416145796,-1.1576477171168968,9.753682295642308,0.009821283390008222,-0.0021644618815549023,-0.10471975511965978,-0.04850802894520163,63.3750122542089,-73.875
1772748061.3508854,112.68739252584719,1.9221713282324457,-7.1620537671447835,-0.2028469194963061,-1.185294447672128,9.765830973445297,-0.018530719926140804,-0.007668285732878425,-0.07526732399225546,-1.1077221406314073,61.49815405082623,-73.5
1772748061.3912475,112.25459081422095,1.9127135576036354,-7.1560848113486495,-0.22784675795644108,-1.2505889825211312,9.773915782813562,-0.0011156682620173412,0.01417886771418079,-0.11671889372712078,-1.1077221406314073,61.49815405082623,-73.5
1772748061.435783,111.8866320423819,1.883655972885905,-7.183194672891774,-0.2745898303666144,-1.2940944998888653,9.779296133134904,0.0021644618815549028,0.009821283390008222,-0.12980886311707826,-1.4821741889630111,61.18499767854512,-71.5
1772748061.4694147,111.58927592552952,1.8805442526615315,-7.190231686250983,-0.30587846159208804,-1.2193486318614122,9.76280602592739,0.0130651101562343,0.014203706867101852,-0.13853550937704992,-1.4821741889630111,61.18499767854512,-71.5
1772748061.5544074,111.0475052618632,1.8367758355955757,-7.200907549730765,-0.27322000613251973,-1.1460965966234613,9.751832043787356,0.0010850969968837277,0.0032743980313596913,-0.1090830782496456,0.6428225511588933,61.1887198380365,-71.875
1772748061.639333,110.67713118444752,1.785958154889041,-7.221675113759515,-0.25148616884302843,-1.0973481854514544,9.788015433455728,-0.004370959252668524,0.0043556736201017165,-0.1265363707695889,0.6428225511588933,61.1887198380365,-71.875
1772748061.685584,109.98847136549225,1.693729114771147,-7.2409933614318485,-0.22727603445328412,-1.112469093680985,9.82477469589488,-0.004369048548597673,0.003264844511005437,-0.14508049407202864,0.2704505331312957,59.68806528745197,-71.0625
1772748061.732405,109.65676006165661,1.6848292975905608,-7.228595040473315,-0.22077034541570686,-1.1552520157042507,9.779691054586042,-1.337492849595594e-05,0.007635803763673961,-0.09272061651219876,0.9579494784648531,59.68926951552271,-70.25
1772748061.765756,109.65676006165661,1.6848292975905608,-7.228595040473315,-0.22077034541570686,-1.1552520157042507,9.779691054586042,-1.337492849595594e-05,0.007635803763673961,-0.09272061651219876,0.9579494784648531,59.68926951552271,-70.25
1772748061.7966523,109.47086794578776,1.6730435440158207,-7.231117693970435,-0.26318448440542297,-1.2339822014064328,9.749688394912283,1.9107040708508487e-06,-0.0010908291090962802,-0.09926560120717749,0.9579494784648531,59.68926951552271,-70.25
1772748061.8476784,109.47086794578776,1.6730435440158207,-7.231117693970435,-0.26318448440542297,-1.2339822014064328,9.749688394912283,1.9107040708508487e-06,-0.0010908291090962802,-0.09926560120717749,0.9579494784648531,59.68926951552271,-70.25
1772748061.9552667,108.20442708094903,1.6084625906438366,-7.251940731409565,-0.3345535626217739,-1.3947491388958428,9.794431967227336,0.005442681321056295,0.006554528174931935,-0.1341721862470641,0.3974208963986086,58.5632859638281,-69.0625
1772748062.0323288,107.82669657628063,1.6179536583977059,-7.246638762982113,-0.3190052250255639,-1.2963216149608536,9.75615319590096,0.002149176248988096,0.018547916262778463,-0.1538071403320003,0.6486247409542789,57.87622491961118,-68.25
