timestamp,yaw,pitch,roll,ax,ay,az,gx,gy,gz,mx,my,mz
1772056000.0499063,-0.009439779250708737,0.1465717505855278,-7.369849015596309,-0.02412451999095128,-1.2178909449813269,9.357188837087888,-0.001090830782496456,0.002181661564992912,-0.001090830782496456,18.5,28.1875,-57.0
1772056000.0642343,-0.009439779250708737,0.1465717505855278,-7.369849015596309,-0.026089933687390265,-1.2286317825667195,9.488588559070193,0.0,0.0,0.0,18.5,28.1875,-57.0
1772056000.0753021,-0.009439779250708737,0.1465717505855278,-7.369849015596309,-0.02739789454726086,-1.2357796899967808,9.582723829632984,-0.002181661564992912,0.003272492347489368,0.001090830782496456,18.5,28.1875,-57.0
1772056000.0883744,-0.009439779250708737,0.1465717505855278,-7.369849015596309,-0.02739789454726086,-1.2357796899967808,9.582723829632984,-0.002181661564992912,0.003272492347489368,0.001090830782496456,18.5,28.1875,-57.0
1772056000.100946,-0.009439779250708737,0.1465717505855278,-7.369849015596309,-0.02826832788862459,-1.2405365425441288,9.645369800632649,-0.002181661564992912,0.0,0.001090830782496456,18.5,28.1875,-56.0625
1772056000.1120422,-0.009439779250708737,0.1465717505855278,-7.369849015596309,-0.02826832788862459,-1.2405365425441288,9.645369800632649,-0.002181661564992912,0.0,0.001090830782496456,18.5,28.1875,-56.0625
1772056000.1246817,-0.009439779250708737,0.1465717505855278,-7.369849015596309,-0.028847591553924627,-1.2437021747768642,9.690405106238895,0.0,0.001090830782496456,0.001090830782496456,18.5,28.1875,-56.0625
1772056000.1401663,-0.009439779250708737,0.1465717505855278,-7.369849015596309,-0.028847591553924627,-1.2437021747768642,9.690405106238895,0.0,0.001090830782496456,0.001090830782496456,18.5,28.1875,-56.0625
1772056000.1523123,-0.009439779250708737,0.1465717505855278,-7.369849015596309,-0.029233085052382674,-1.2458088676653205,9.720375599042526,-0.001090830782496456,0.002181661564992912,0.0,18.5,28.1875,-56.0625
1772056000.1761038,-0.009439779250708737,0.1465717505855278,-7.369849015596309,-0.029233085052382674,-1.2458088676653205,9.720375599042526,-0.001090830782496456,0.002181661564992912,0.0,18.5,28.1875,-56.0625
1772056000.2059789,-1.303271280557658e-07,0.14657377417659936,-7.369950484577922,-0.02928359063701427,-1.250560801554043,9.736975515503682,0.001090830767691545,1.7972007410592438e-07,0.001090830782496456,16.995355731288814,28.190300456308524,-56.0625
1772056000.2353668,-1.303271280557658e-07,0.14657377417659936,-7.369950484577922,-0.02928359063701427,-1.250560801554043,9.736975515503682,0.001090830767691545,1.7972007410592438e-07,0.001090830782496456,16.995355731288814,28.190300456308524,-56.0625
1772056000.2517235,-1.303271280557658e-07,0.14657377417659936,-7.369950484577922,-0.026109235193443367,-1.2503743037438932,9.748022574475364,-5.391602223177732e-07,0.0032724923030746354,-0.001090830782496456,16.995355731288814,28.190300456308524,-56.0625
1772056000.2826033,-1.303271280557658e-07,0.14657377417659936,-7.369950484577922,-0.026109235193443367,-1.2503743037438932,9.748022574475364,-5.391602223177732e-07,0.0032724923030746354,-0.001090830782496456,16.995355731288814,28.190300456308524,-56.0625
1772056000.3546467,-1.303271280557658e-07,0.14657377417659936,-7.369950484577922,-0.02065107431906013,-1.253594752071833,9.755374268817285,-0.0010913699279138627,0.0032723125830005292,0.0,18.495211550106237,29.06554757727466,-56.5625
1772056000.4308524,40.64282466323566,0.1471729378378441,-7.3717389130513835,-0.02036384089072914,-1.2557384755839534,9.760266739278025,0.00218166153538309,3.5944014821184877e-07,0.0,18.495211550106237,29.06554757727466,-56.5625
1772056000.4791365,40.61834253045285,0.14558838476970062,-7.371395060985474,-0.0201726902527825,-1.257165099634309,9.763522623717172,0.0010902916074692272,0.003272672023148741,0.001090830782496456,18.05771155604405,29.06547549686248,-55.75
1772056000.512538,40.62731028807773,0.14617133513160355,-7.371649276030306,-0.02004548163852155,-1.2581145020033857,9.765689378440811,-0.001090830767691545,-1.7972007410592438e-07,0.0,18.05771155604405,29.06547549686248,-55.75
1772056000.545103,40.507622959086206,0.1450359982846603,-7.369345086197782,-0.01996082572674421,-1.258746318674487,9.763786217797838,0.0,0.0,-0.001090830782496456,17.37013948496272,29.502862221705527,-57.0
1772056000.579378,40.507622959086206,0.1450359982846603,-7.369345086197782,-0.01996082572674421,-1.258746318674487,9.763786217797838,0.0,0.0,-0.001090830782496456,17.37013948496272,29.502862221705527,-57.0
1772056000.612676,40.507622959086206,0.1450359982846603,-7.369345086197782,-0.01990448816312489,-1.25916678561125,9.759174573942317,-0.002182020975531302,0.002181302095234878,0.001090830782496456,17.37013948496272,29.502862221705527,-57.0
1772056000.662389,40.507622959086206,0.1450359982846603,-7.369345086197782,-0.01990448816312489,-1.25916678561125,9.759174573942317,-0.002182020975531302,0.002181302095234878,0.001090830782496456,17.37013948496272,29.502862221705527,-57.0
1772056000.8654344,40.40328373819594,0.14731545441951222,-7.373681338112572,-0.01982427936005008,-1.266809453465991,9.765327969498797,0.001090651047617439,0.001091010487765651,-0.001090830782496456,18.745211546713204,29.065588766081618,-55.375
1772056000.9323936,40.42576429693376,0.1421858609173507,-7.376019445952875,-0.019813066956771316,-1.2678778234057977,9.766890815891449,-0.0010911902078397568,0.0021814818153089843,0.0,18.745211546713204,29.065588766081618,-55.375
1772056001.0145888,40.42576429693376,0.1421858609173507,-7.376019445952875,-0.019813066956771316,-1.2678778234057977,9.766890815891449,-0.0010911902078397568,0.0021814818153089843,0.0,18.745211546713204,29.065588766081618,-55.375
1772056001.1370716,40.22770256904461,0.32240689032996384,-7.454618526660154,-0.019805054102998557,-1.271933923328184,9.764585761000301,-0.0010987384509522056,0.04799637405835387,-0.02945243112740431,17.37038661780448,28.00286224206374,-56.5625
1772056001.1885343,39.78482792069989,0.2822079457330279,-7.4454138362350415,-0.01980027276296372,-1.2712881008550079,9.763051772719393,-0.014182237740582934,0.008724309780568982,-0.136353847812057,17.37038661780448,28.00286224206374,-56.5625
1772056001.2113855,39.78482792069989,0.2822079457330279,-7.4454138362350415,-0.01980027276296372,-1.2712881008550079,9.763051772719393,-0.014182237740582934,0.008724309780568982,-0.136353847812057,17.37038661780448,28.00286224206374,-56.5625
1772056001.3089561,39.091628709290795,0.26862827010792195,-7.472579212897748,0.06048503792683412,-1.2674999745601043,9.745305362117625,0.00327051538225947,0.011999677604829312,-0.13744467859455345,18.49534541372886,28.253047588302024,-55.75
1772056001.3777094,38.6418113589084,0.23264470221367084,-7.476106309004939,0.1139062996002294,-1.2181474555601226,9.733495324102543,-0.002182200695605408,0.0032721328629264235,-0.14944381720201447,18.49534541372886,28.253047588302024,-55.75
1772056001.4291484,38.6418113589084,0.23264470221367084,-7.476106309004939,0.1139062996002294,-1.2181474555601226,9.733495324102543,-0.002182200695605408,0.0032721328629264235,-0.14944381720201447,18.49534541372886,28.253047588302024,-55.75
1772056001.4871738,38.44952262332104,0.22439363714160396,-7.467636502661019,0.06918258834820365,-1.2321486957276575,9.715600540608317,0.006549297887927813,-0.026178860104152445,-0.14508049407202864,16.245932384765364,24.69017693739014,-59.375
1772056001.5128624,38.31130989476527,0.2024155501934739,-7.494813403093038,0.0394194581065702,-1.2414663646550512,9.70369176209074,0.013092485293336025,-0.01526947410679236,-0.037088246604879506,16.245932384765364,24.69017693739014,-59.375
1772056001.5360627,38.32803523922165,0.2501237124072617,-7.500368199447976,0.05306519739982771,-1.257696992980392,9.816190624480562,0.027256571306434257,0.0861801236494847,0.002181661564992912,18.49559254657062,26.75304760866024,-55.75
1772056001.5497897,38.32803523922165,0.2501237124072617,-7.500368199447976,0.05306519739982771,-1.257696992980392,9.816190624480562,0.027256571306434257,0.0861801236494847,0.002181661564992912,18.49559254657062,26.75304760866024,-55.75
1772056001.5651956,38.29461811056722,0.18696965628192372,-7.410582051961775,0.14581816598589045,-1.536093449660395,9.891057360706354,0.10253341944107848,0.02837849364694613,-0.03599741582238305,18.49559254657062,26.75304760866024,-55.75
1772056001.5800328,38.333117843029854,0.17420517277053424,-7.430689968541579,0.20754423046136666,-1.7213631816887467,8.954072383689159,-0.07525725864656667,-0.06109892367583983,0.02181661564992912,18.49559254657062,26.75304760866024,-55.75
1772056001.6028862,38.333117843029854,0.17420517277053424,-7.430689968541579,0.20754423046136666,-1.7213631816887467,8.954072383689159,-0.07525725864656667,-0.06109892367583983,0.02181661564992912,18.49559254657062,26.75304760866024,-55.75
1772056001.638599,38.322810328272276,0.19715321493237065,-7.370533351432508,0.07465218094045994,-1.6975018641120214,8.330519348292222,0.030540206254103457,0.018549155212831233,0.017453292519943295,16.55809257286665,26.752728395406297,-56.5625
1772056001.6573064,38.34294095253549,0.2292488284259107,-7.3524297709083335,-0.013816856494165121,-1.4942961707456262,8.88897927560931,-0.0010901118873951213,-0.004363502790840286,0.01090830782496456,16.55809257286665,26.752728395406297,-56.5625
1772056001.7068489,38.34294095253549,0.2292488284259107,-7.3524297709083335,-0.013816856494165121,-1.4942961707456262,8.88897927560931,-0.0010901118873951213,-0.004363502790840286,0.01090830782496456,16.55809257286665,26.752728395406297,-56.5625
1772056001.736858,38.83852733575468,0.24320199491380237,-7.3426533214660585,-0.03924089602381556,-1.3590595405202042,9.260628118832686,0.017451135642175448,0.013092844733484236,0.004363323129985824,16.995705836147977,26.065300485149326,-57.75
1772056001.7601535,38.83852733575468,0.24320199491380237,-7.3426533214660585,-0.03924089602381556,-1.3590595405202042,9.260628118832686,0.017451135642175448,0.013092844733484236,0.004363323129985824,16.995705836147977,26.065300485149326,-57.75
1772056001.78704,39.09851623896137,0.2688420824476025,-7.346587011240835,-0.026054305368396098,-1.269056113675557,9.50795627240824,-0.01527252934805216,0.005451637757420242,0.018544123302439753,16.995705836147977,26.065300485149326,-57.75
1772056001.843078,39.09851623896137,0.2688420824476025,-7.346587011240835,-0.026054305368396098,-1.269056113675557,9.50795627240824,-0.01527252934805216,0.005451637757420242,0.018544123302439753,16.995705836147977,26.065300485149326,-57.75
1772056001.8821492,39.56586098002511,0.2743055932249461,-7.339164091380257,-0.047377065803374405,-1.255996361903239,9.665860172361628,1.9769208151651683e-06,-0.011999138444606995,0.04036073895236887,16.55831911130493,25.37772841406799,-57.0
1772056001.9555922,40.34087664484257,0.2904430406533193,-7.3271961806205015,-0.14854939701081216,-1.1904526739738028,9.740837448512595,0.002183458736124149,-0.010907948236767238,0.05235987755982989,16.995932374586257,24.69030050381102,-59.0
1772056002.039269,40.34087664484257,0.2904430406533193,-7.3271961806205015,-0.14854939701081216,-1.1904526739738028,9.740837448512595,0.002183458736124149,-0.010907948236767238,0.05235987755982989,16.995932374586257,24.69030050381102,-59.0
1772056002.081935,41.12511074977139,0.30291633246884997,-7.324234213442705,-0.21587845326037047,-1.1468340818277312,9.79073398824001,0.0032750083841121182,-0.015271091587459313,0.07744898555724837,16.995932374586257,24.69030050381102,-59.0
1772056002.1277895,41.30460945961928,0.30537419918709074,-7.31967105203861,-0.2138536248127458,-1.11779868026114,9.830629801462374,5.391602223177732e-07,-0.0032724923030746354,0.05999569303730508,15.496004475356651,24.252553376907073,-58.1875
1772056002.1585479,41.64813531754049,0.30768551789043996,-7.325992855243451,-0.08539243207138496,-1.0951098904669654,9.857180019496422,0.0098203524304096,-0.017451674802397767,0.07963064712224129,15.496004475356651,24.252553376907073,-58.1875
1772056002.2094839,42.013988609840396,0.3079594540793864,-7.303611407645356,-0.012034467045620091,-1.0588313273871381,9.777361261841486,0.005456310479346996,-0.013089070611928011,0.0818123086872342,16.55856624414669,23.877728434426206,-57.375
1772056002.2581046,42.239851085227194,0.31733263545278034,-7.290154252053909,-0.012034467045620091,-1.0588313273871381,9.777361261841486,0.005456310479346996,-0.013089070611928011,0.0818123086872342,16.55856624414669,23.877728434426206,-57.375
1772056002.2780998,42.47806484708147,0.3394052858639919,-7.249200286527923,-0.04473338546277035,-1.1395109988757472,9.798314619476063,0.015271990187829841,-0.002179145454345607,0.07635815477475191,16.558504460936252,24.252728429336653,-58.1875
1772056002.312245,42.47806484708147,0.3394052858639919,-7.249200286527923,-0.04473338546277035,-1.1395109988757472,9.798314619476063,0.015271990187829841,-0.002179145454345607,0.07635815477475191,16.558504460936252,24.252728429336653,-58.1875
1772056002.3655736,42.8220542578239,0.37424376493564654,-7.243072601839656,0.020478752811363785,-1.1931880897597549,9.725285940527227,0.011999677604829312,-0.00327051538225947,0.09381144729469522,15.058628047715343,23.502481306674,-59.375
1772056002.432658,43.02372352049746,0.3767167343616947,-7.2161750348449605,0.0672019735403096,-1.108485023176941,9.70344706412913,0.002181122375160772,0.003272851743222847,0.06981317007977318,15.058628047715343,23.502481306674,-59.375
1772056002.4606845,43.20558032815003,0.3816787503083841,-7.218350658765684,0.09829575500284896,-1.0521160785613295,9.68891353584243,0.00981855522966854,-0.006543367125482317,0.032724923474893676,15.058751614136225,22.752481316853107,-59.375
1772056002.6069438,43.58287285427382,0.38335300919383375,-7.218390623318012,0.08890656375282545,-1.1617930488482218,9.679241635117778,0.004366737752174193,-0.020725065705842934,0.07635815477475191,15.058751614136225,22.752481316853107,-59.375
1772056002.6855462,43.85053448223314,0.43019292340500875,-7.235380782747369,0.06258749188855907,-1.2347851541499626,9.716291545422886,0.005449121676382759,0.03054416009573379,0.09053895494720585,14.058813410918807,22.377316566714818,-59.75
1772056002.863851,44.2688478673656,0.4874324877460215,-7.1607318782197975,0.0651337444187954,-1.2264903798525562,9.761018517100235,0.007637432854507768,-0.009816218868705163,0.06435901616729091,14.058864896927508,22.064816570956115,-61.0
1772056002.9889972,45.074708650620735,0.5686220779620046,-7.121752798546674,0.024495312475181812,-1.2306843562549599,9.757070504463355,0.010909565717434191,-0.007634018173099756,0.08508480103472356,14.371539945115794,21.002368071385217,-61.75
1772056003.151844,45.55638203825849,0.6108472498207488,-7.076024742407051,-0.09713337449836934,-1.2837599324868438,9.699668665012258,-0.008727185301754677,0.003271054542481788,0.02399827721492203,13.246673824007075,20.18968273278126,-62.1875
1772056003.2899277,45.66194402226537,0.6302943076004427,-7.070088516130606,-0.14150875107244468,-1.2791697514623894,9.70646972368155,0.006546422366742118,-0.008725567821087724,0.02399827721492203,13.246673824007075,20.18968273278126,-62.1875
1772056003.3458972,46.00870181321419,0.6675184492188111,-7.015779226022596,-0.1375889518578649,-1.2761095260198818,9.710995752253162,0.003273390903445165,-0.005453614678235407,0.04254240051736178,13.684173818069263,20.189754813193442,-62.5625
1772056003.3929915,46.08681033125179,0.6695921788196003,-7.009193977872125,-0.09818028311398834,-1.297482699435228,9.747458890781711,0.007636174813989027,-0.0021804034948643483,0.038179077387375956,13.684173818069263,20.189754813193442,-62.5625
1772056003.4474077,46.08681033125179,0.6695921788196003,-7.009193977872125,-0.09818028311398834,-1.297482699435228,9.747458890781711,0.007636174813989027,-0.0021804034948643483,0.038179077387375956,13.684173818069263,20.189754813193442,-62.5625
1772056003.4905057,46.31253904611077,0.6806288536372935,-7.0011306309518035,-0.06340456254203213,-1.3278518303276252,9.78787332855291,-0.002181481815308984,-0.0010911902078397568,0.05672320068981571,12.99649877497053,21.2521415295539,-64.5625
1772056003.5394537,46.42516296746285,0.6920973685350064,-6.975541883808291,-0.06219570523839534,-1.3085030478177524,9.775204277079162,0.01199985732490342,-0.004361346149951015,0.06326818538479445,12.99649877497053,21.2521415295539,-64.5625
1772056003.5969505,46.55567411487523,0.7092838181561252,-6.978677448874458,-0.07477167085432215,-1.295628853696061,9.76677316484596,-0.00327141398263,-0.006545523766371588,0.04145156973486533,12.559245913750102,19.752069469499933,-65.5
1772056003.6744978,46.6369712034118,0.7224227699719713,-6.943951088149022,-0.0965212821366569,-1.2870634258208127,9.761162353836458,0.014181518860286511,-0.004360986709802803,0.030543261909900768,12.559245913750102,19.752069469499933,-65.5
1772056003.7473776,46.86036313830527,0.7111336299952549,-6.938226298777263,-0.09761054984116511,-1.3081219180487202,9.76077353349382,0.0043651202715072395,-0.010907588796619025,0.04036073895236887,12.996920960241871,18.689641564332515,-66.25
1772056003.8438048,46.92986591489326,0.7024948810555894,-6.9433904288120845,-0.08496106105397802,-1.2853376766079452,9.760514777899202,-0.0021809426550866663,-0.004363682510914392,0.02945243112740431,12.996920960241871,18.689641564332515,-66.25
1772056003.9293318,46.95562193875118,0.7481712537745169,-6.9390686937807695,-0.03974508591511937,-1.2802042910604639,9.760342578941472,-0.0010922685282843923,0.008726466421458254,0.04908738521234052,11.059287122915277,19.501822340051206,-67.5
1772056003.9811902,47.05503141221718,0.7642648485294394,-6.926577902803848,-0.046452241210780586,-1.266758807707588,9.720086641970859,0.007636893694285451,-0.006543726565630529,0.028361600344907856,11.059287122915277,19.501822340051206,-67.5
1772056004.083468,46.847854888469776,0.7682184856343466,-6.9131104320862535,-0.06429567365924395,-1.2611583048926245,9.693296765605197,-0.006543906285704635,-0.006546062926593906,0.003272492347489368,11.059287122915277,19.501822340051206,-69.0
1772056004.1773474,46.77793672822467,0.78241518277273,-6.9208115022163845,-0.10629171507672881,-1.163773066419022,9.698884184097613,-0.0010899321673210154,-0.005454333558531831,0.016362461737446838,11.059287122915277,19.501822340051206,-69.0
1772056004.2797797,46.84690746446082,0.7838050879129101,-6.913973619819433,-0.13423520251641188,-1.1257251713745857,9.70260254868876,-0.0076370734143595565,0.007634557333322074,0.020725784867432664,9.559585762123954,17.689075231808953,-72.25
1772056004.3584194,46.99981781509976,0.760330369362481,-6.820236735592237,-0.1406867592087405,-1.0657411303660675,9.773578805099923,0.014181159420138298,-0.002179325174419713,0.026179938779914945,9.996787137335678,19.501647287621626,-72.5625
1772056004.374651,47.015045111139266,0.7676684442691174,-6.817401011533113,-0.13704964119980143,-1.087243599567327,9.792452325060044,0.013090508372520859,-0.003270335662185364,-0.007635815477475192,9.996787137335678,19.501647287621626,-72.5625
1772056004.4291642,47.015045111139266,0.7676684442691174,-6.817401011533113,-0.13704964119980143,-1.087243599567327,9.792452325060044,0.013090508372520859,-0.003270335662185364,-0.007635815477475192,9.996787137335678,19.501647287621626,-72.5625
1772056004.5090008,47.03859593305682,0.7450271506700653,-6.797089437785603,-0.04270368164300378,-1.0909906165444943,9.913653490383735,0.009818914669816752,-0.008725028660865407,0.008726646259971648,10.246859214354822,19.064188482366397,-73.0625
1772056004.54958,47.06043518888626,0.7499384870272723,-6.787642565907733,0.018465097005769867,-1.0438199602839653,9.945882474111407,0.006543726565630529,0.007636893694285451,0.007635815477475192,9.559421006896113,18.689075218236813,-75.0625
1772056004.6105933,47.02745072893882,0.7800947436570554,-6.7738344570187525,0.032411342601147045,-1.0124328244704714,9.88704782178517,0.002182020975531302,-0.002181302095234878,0.008726646259971648,9.559421006896113,18.689075218236813,-75.0625
1772056004.6656137,47.08098564641287,0.7768373200389145,-6.776239539691286,-0.0051358432639183,-1.011623421920367,9.804407565693039,0.007636893694285451,-0.006543726565630529,0.014180800172453928,9.559287143273492,19.501575207209445,-75.875
1772056004.7006748,47.08098564641287,0.7768373200389145,-6.776239539691286,-0.0051358432639183,-1.011623421920367,9.804407565693039,0.007636893694285451,-0.006543726565630529,0.014180800172453928,9.559287143273492,19.501575207209445,-75.875
1772056004.7451968,47.06782059174257,0.7416594106802215,-6.7150510827410645,-0.04675088241416875,-1.0162975552069993,9.803130079537985,0.005453794398309513,0.0021825601357536198,-0.013089969389957472,8.059040030789944,21.00132805400947,-78.6875
1772056004.771719,47.06802541220553,0.7388744698579616,-6.7086479262912135,-0.057816868586974164,-1.0175404687155742,9.838879261747763,-0.006543546845556423,-0.008727724461976996,-0.003272492347489368,8.059040030789944,21.00132805400947,-78.6875
1772056004.8259234,47.05371085744199,0.7159623912279195,-6.710649524721611,-0.09528606147779947,-1.0250627972168889,9.822528602676007,0.0065451643262233765,-0.0010897524472469095,-0.018544123302439753,8.871612100174758,20.563961923569902,-79.0625
1772056004.8683197,47.05371085744199,0.7159623912279195,-6.710649524721611,-0.09528606147779947,-1.0250627972168889,9.822528602676007,0.0065451643262233765,-0.0010897524472469095,-0.018544123302439753,8.871612100174758,20.563961923569902,-79.0625
1772056004.9157367,47.13883603829803,0.7089371554319367,-6.700184677676123,-0.120221390788334,-1.0300688228045984,9.804957198297943,-0.008728083902125207,0.008725208380939512,0.02945243112740431,8.871612100174758,20.563961923569902,-79.0625
1772056004.9840555,47.18998463910399,0.6998612904443668,-6.689469375426568,-0.13680455140578535,-1.10030251015063,9.79326362496979,0.0032719531428523174,0.003273031463296953,0.026179938779914945,9.996364952064337,22.06414725284301,-81.0625
1772056005.0226574,47.18998463910399,0.6998612904443668,-6.689469375426568,-0.13680455140578535,-1.10030251015063,9.79326362496979,0.0032719531428523174,0.003273031463296953,0.026179938779914945,9.996364952064337,22.06414725284301,-81.0625
1772056005.0746737,47.252912859935954,0.6943323234514673,-6.685672939589403,-0.10771179547438298,-1.070098062797884,9.785481682545676,-0.0021798643346420308,-0.010908667117063661,0.02181661564992912,9.996364952064337,22.06414725284301,-81.0625
1772056005.1097465,47.32899483642684,0.6831157249262224,-6.684278175858396,-0.08834813576620511,-1.0667228988000113,9.773612663377783,-0.004362065030247438,-0.0076365342541372385,0.04690572364734761,10.24612811303128,23.501688422140017,-81.875
1772056005.1887727,47.42030989995282,0.679206448768136,-6.680047438940158,-0.06877161321282659,-1.0644756626131964,9.799165080780375,-0.002181122375160772,-0.003272851743222847,0.022907446432425576,10.24612811303128,23.501688422140017,-81.875
1772056005.2217119,47.42030989995282,0.679206448768136,-6.680047438940158,-0.06877161321282659,-1.0644756626131964,9.799165080780375,-0.002181122375160772,-0.003272851743222847,0.022907446432425576,10.24612811303128,23.501688422140017,-81.875
1772056005.3028262,47.45078502644097,0.6938219350059602,-6.67433960340566,-0.07246811219795117,-1.0696731309811898,9.782718812049401,0.005454333558531831,-0.0010899321673210154,0.02181661564992912,9.558566339151689,23.87657514783132,-83.0625
1772056005.5053487,47.557490815806915,0.6995011668256315,-6.620457402771077,0.052311479182087894,-1.0245650781783542,9.743575710043642,0.005450918877123818,0.01963585241881834,0.018544123302439753,9.99527344867989,28.689147162927565,-84.0
1772056005.5988219,47.69357494767088,0.7322605522948825,-6.62394942002183,0.024350921177713238,-0.9885940959329301,9.757225635233267,0.009818375509594435,-0.005452536357790772,0.028361600344907856,8.86972771225633,32.00146176833852,-84.6875
1772056005.721462,47.716981207013404,0.7137699745567972,-6.578975913908069,-0.007156505392411891,-0.9857231282642809,9.818365701971173,-0.0032721328629264235,-0.002182200695605408,-0.011999138607461015,8.86972771225633,32.00146176833852,-84.6875
1772056005.779351,47.716981207013404,0.7137699745567972,-6.578975913908069,-0.007156505392411891,-0.9857231282642809,9.818365701971173,-0.0032721328629264235,-0.002182200695605408,-0.011999138607461015,8.86972771225633,32.00146176833852,-84.6875
1772056005.8976192,47.85708401292043,0.6784401182398668,-6.566735369874731,-0.02811607894419149,-1.0339892062803908,9.859053733405952,-0.005452536357790772,-0.009818375509594435,-0.003272492347489368,9.994367294926766,34.189147088280784,-83.5
1772056005.9474316,47.85708401292043,0.6784401182398668,-6.566735369874731,-0.02811607894419149,-1.0339892062803908,9.859053733405952,-0.005452536357790772,-0.009818375509594435,-0.003272492347489368,9.994367294926766,34.189147088280784,-83.5
1772056006.0074787,47.85708401292043,0.6784401182398668,-6.566735369874731,-0.02811607894419149,-1.0339892062803908,9.859053733405952,-0.005452536357790772,-0.009818375509594435,-0.003272492347489368,9.994367294926766,34.189147088280784,-83.5
1772056006.065356,48.05613925016938,0.7687568818043965,-6.553042397862613,-0.10263381267657766,-0.9971760322263008,9.742584752015722,-0.0021800440547161365,-0.009817836349372116,0.002181661564992912,10.243811242639769,37.56418823128176,-83.5
1772056006.1214662,48.05613925016938,0.7687568818043965,-6.553042397862613,-0.10263381267657766,-0.9971760322263008,9.742584752015722,-0.0021800440547161365,-0.009817836349372116,0.002181661564992912,10.243811242639769,37.56418823128176,-83.5
1772056006.1950064,48.03402064907168,0.7710535147980062,-6.5440936957564935,-0.13181138069874682,-0.9512995845536785,9.731684788470933,-0.004364221671136709,0.005453434958161301,0.004363323129985824,11.056074395972383,39.00182207539443,-82.25
1772056006.2643209,48.03408594904123,0.7717549158208428,-6.528494664591065,-0.12778759291576744,-1.0746405996768333,9.724430984492447,-0.00981765662929801,0.0010892132870245917,-0.01090830782496456,11.056074395972383,39.00182207539443,-82.25
1772056006.316949,48.11846216886057,0.7765706546040588,-6.527959102045993,-0.12510980709484937,-1.1567226674318762,9.729638994097023,0.005455232158902361,-0.0065440860057787405,0.007635815477475192,10.680878754228875,40.18926027606707,-80.6875
1772056006.3819,48.210658370122246,0.7569073720889714,-6.52300638543172,-0.07984683018532322,-1.1778890853665513,9.77993643021406,0.014184574101546311,-0.022905109760559067,0.037088246604879506,10.680878754228875,40.18926027606707,-80.6875
1772056006.4220114,48.253013455931196,0.7245212124446158,-6.530898864336918,-0.12331728123483447,-1.1919872247998096,9.81675392379809,-0.0043624244703956505,-0.005454872718754149,-0.002181661564992912,11.493203690771928,41.25189412526929,-79.5
1772056006.4979184,48.29716571511197,0.7241467923612389,-6.523997099464268,-0.14222868181429893,-1.0943241525507725,9.85463600132919,0.0021832790160500434,-0.009817117469075693,0.006544984694978736,11.493203690771928,41.25189412526929,-79.5
1772056006.5461717,48.29716571511197,0.7241467923612389,-6.523997099464268,-0.14222868181429893,-1.0943241525507725,9.85463600132919,0.0021832790160500434,-0.009817117469075693,0.006544984694978736,11.493203690771928,41.25189412526929,-79.5
1772056006.5673964,48.30535933623851,0.7438132865302048,-6.515575451415662,-0.15481400764574604,-1.0293304689370386,9.866465653926326,0.00545217691764256,0.012000037044977523,0.004363323129985824,11.493265473982369,40.87689413035884,-78.25
1772056006.6142213,48.328570258541454,0.7230777248645407,-6.517502042791903,-0.11973127915671182,-0.9439052708037202,9.840578494226953,-0.013092305573261919,0.014178643339100815,0.0,12.18087873387066,40.189507408908824,-78.6875
1772056006.6828942,48.35232782103717,0.6931154624251911,-6.515922244985418,-0.10639056974574422,-0.932567983838886,9.867145875104388,-0.006543906285704635,-0.006546062926593906,0.030543261909900768,12.18087873387066,40.189507408908824,-78.6875
1772056006.7131674,48.39139314085377,0.6710673594302157,-6.495841082392098,-0.09750641428717759,-0.9618193742906919,9.884826170301231,0.013093204173632448,-0.019632797177558538,0.025089107997418487,12.555703676351525,41.252069177698864,-77.0625
1772056006.7529552,48.361425653231976,0.6473184400030109,-6.498151577724441,-0.08155877308626346,-0.9812841945030027,9.873176427301656,-0.0010883146866540621,-0.015271810467755737,-0.02945243112740431,12.555703676351525,41.252069177698864,-77.0625
1772056006.8483963,48.361425653231976,0.6473184400030109,-6.498151577724441,-0.09770668930923242,-0.9942422239151387,9.865423653471595,1.437760592847395e-06,-0.00872664614153236,0.003272492347489368,13.243203667020678,41.252182446918006,-75.875
1772056006.9092991,48.44239981314356,0.5979490704427953,-6.514421667542156,-0.08167717351090208,-1.0931792536129246,9.860264269091848,0.008727185301754677,-0.003271054542481788,0.015271630954950384,13.243203667020678,41.252182446918006,-75.875
1772056006.9436502,48.464219338476994,0.6026926098103297,-6.504947792836791,-0.0776999331323754,-1.1590218439270465,9.83341497446999,0.00218166153538309,3.5944014821184877e-07,0.007635815477475192,12.555580109930645,42.00206916751976,-77.0625
1772056006.9789271,48.48920445989836,0.6006225879219415,-6.51428558659349,-0.0650238514744513,-1.1660414706161342,9.815547068825417,0.0,0.0,0.015271630954950384,12.555580109930645,42.00206916751976,-77.0625
1772056007.0372503,48.48920445989836,0.6006225879219415,-6.51428558659349,-0.0650238514744513,-1.1660414706161342,9.815547068825417,0.0,0.0,0.015271630954950384,12.555580109930645,42.00206916751976,-77.0625
1772056007.0925515,48.61312971189461,0.5734797300929888,-6.5059571964276035,-0.06663992945721496,-1.070361257279707,9.803656177216538,-0.0021787860141973953,-0.01745365172321293,0.016362461737446838,12.993080103992833,42.00214124793194,-74.25
1772056007.1114955,48.70514873420934,0.5572671741115354,-6.492013473976784,-0.06103180147383005,-0.9665447019300181,9.802433145095431,-0.006544445445926953,-0.003273570623519271,0.038179077387375956,12.993080103992833,42.00214124793194,-74.25
1772056007.1330645,48.70514873420934,0.5572671741115354,-6.492013473976784,-0.06103180147383005,-0.9665447019300181,9.802433145095431,-0.006544445445926953,-0.003273570623519271,0.038179077387375956,12.993080103992833,42.00214124793194,-74.25
1772056007.1752422,48.81467609713666,0.5565283113950176,-6.510203265382808,-0.05729965494778177,-0.8974559440517107,9.801619230880998,-0.004361885310173333,-0.008727365021828784,0.044724062082354694,12.993080103992833,42.00214124793194,-74.6875
1772056007.2086022,48.9589275268313,0.5583358908341876,-6.512161145170385,-0.05146257459396359,-0.9016542712598354,9.784352021526713,-0.018542685290163417,-0.00872970138279216,0.061086523819801536,12.993080103992833,42.00214124793194,-74.6875
1772056007.295433,48.9589275268313,0.5583358908341876,-6.512161145170385,-0.05146257459396359,-0.9016542712598354,9.784352021526713,-0.018542685290163417,-0.00872970138279216,0.061086523819801536,12.993080103992833,42.00214124793194,-74.6875
1772056007.368612,49.35189571525285,0.5450718573164116,-6.449552923998738,-0.04757806282295753,-0.9044482111184547,9.772860886588804,-0.004363862230988498,0.0032717734227782117,0.050178215994836975,13.680703661082866,41.25225452733019,-73.0
1772056007.4784822,49.57752718730554,0.5411723517437548,-6.479426926590648,-0.03830990492869401,-0.8628199930297821,9.795319670017888,-0.027268971991547566,-0.010912800678768098,0.04363323129985824,13.680703661082866,41.25225452733019,-73.0
1772056007.530426,50.00106948244276,0.5867359261115849,-6.490640855823717,-0.05890294267752144,-0.8351212879065677,9.867132638533322,-0.005453974118383619,-0.0010917293680620746,0.09381144729469522,12.555518326720206,42.3770691624302,-73.5
1772056007.571349,50.200354901951904,0.6107175949945445,-6.483633575129985,-0.07593871280594335,-0.9003164517344961,9.858056467852494,0.002181841255457196,-0.0010904713275433331,0.05345070834232634,12.555518326720206,42.3770691624302,-73.5
1772056007.6110423,50.39014719912689,0.6371002250093357,-6.482725065982407,-0.08727582752438666,-0.9437031049842838,9.91891861179826,-0.00545613075927289,0.011998239844236465,0.08508480103472356,12.993152184405014,41.56464125386975,-72.6875
1772056007.691578,50.656693916818774,0.6298948248507115,-6.499828648629488,-0.02457320582534114,-0.9725648644438729,9.869103672621849,-0.009816937749001588,-0.0032741097837415884,0.061086523819801536,12.993152184405014,41.56464125386975,-72.6875
1772056007.7309155,50.8563793081793,0.6439154303057149,-6.52052050252964,0.017150830608704374,-0.9683562613238179,9.912889956337626,-0.015270192987088782,-0.008729162222569843,0.07090400086226964,13.680703661082866,41.25225452733019,-73.0625
1772056007.7677722,50.99694948662329,0.6483363300017763,-6.544800472471769,0.028193805831864493,-0.9755935735695632,9.865091669757291,-0.011998958724532889,-0.00109280768850671,0.061086523819801536,13.680703661082866,41.25225452733019,-73.0625
1772056007.7925026,50.99694948662329,0.6483363300017763,-6.544800472471769,0.028193805831864493,-0.9755935735695632,9.865091669757291,-0.011998958724532889,-0.00109280768850671,0.061086523819801536,13.680703661082866,41.25225452733019,-73.0625
1772056007.8568642,51.122189914756156,0.6491890932781679,-6.547230053749971,0.002091665865571025,-0.9804154352694466,9.829937332272605,-0.007635815373840815,-1.2580405187414707e-06,0.07417649320975901,12.993018320782394,42.377141242842384,-71.0
1772056007.8843179,51.122189914756156,0.6491890932781679,-6.547230053749971,0.002091665865571025,-0.9804154352694466,9.829937332272605,-0.007635815373840815,-1.2580405187414707e-06,0.07417649320975901,12.993018320782394,42.377141242842384,-71.0
1772056007.909435,51.57199709250058,0.6714392798799392,-6.569614312784709,-0.015261931838102438,-1.0873227918864852,9.806542513376227,-0.009816937749001588,-0.0032741097837415884,0.07635815477475191,12.555765459561966,40.87706918278842,-72.6875
1772056007.969359,51.983467059741706,0.7074964797049209,-6.5767568954926325,-0.030155668919428065,-1.1584689946063427,9.79097352273794,-0.00545613075927289,0.011998239844236465,0.10035643198967395,12.555765459561966,40.87706918278842,-72.6875
1772056008.001125,51.983467059741706,0.7074964797049209,-6.5767568954926325,-0.04006728457310577,-1.2058159977612488,9.747161416311986,-0.01090920627728598,0.005452356637716665,0.09381144729469522,13.680580094661986,42.00225451715108,-71.875
1772056008.0918975,52.5114977396061,0.7347126373921842,-6.567041525465329,-0.046666660818475696,-1.2172542294886444,9.718004948898809,-0.004363682510914392,0.0021809426550866663,0.10362892433716332,13.680580094661986,42.00225451715108,-71.875
1772056008.110067,52.887169106525036,0.7374158411451156,-6.589621461883908,-0.02765536622322735,-1.147924818833177,9.7119820923637,2.336360963377017e-06,-0.014180799979990086,0.09599310885968812,13.680580094661986,42.00225451715108,-71.0625
1772056008.174238,53.20536828664567,0.7619748310764988,-6.584257212995395,-0.015003562040165301,-1.1017868705022253,9.71466417203394,1.7972007410592438e-07,-0.001090830767691545,0.12435470920459599,13.680580094661986,42.00225451715108,-71.0625
1772056008.2247684,53.20536828664567,0.7619748310764988,-6.584257212995395,-0.015003562040165301,-1.1017868705022253,9.71466417203394,1.7972007410592438e-07,-0.001090830767691545,0.12435470920459599,13.680580094661986,42.00225451715108,-71.0625
1772056008.3044367,53.753896582227284,0.8123788789108094,-6.58694450440054,-0.017691252558935913,-1.1420653275239456,9.729898362747715,0.002182200695605408,-0.0032721328629264235,0.09817477042468103,14.055703655993312,41.25231631054063,-71.75
1772056008.3745327,53.753896582227284,0.8123788789108094,-6.58694450440054,-0.017691252558935913,-1.1420653275239456,9.729898362747715,0.002182200695605408,-0.0032721328629264235,0.09817477042468103,14.055703655993312,41.25231631054063,-71.75
1772056008.4467952,54.28623013531501,0.8149948123091633,-6.60500401000917,-0.061891035545877944,-1.1179669324565167,9.736622584958605,0.0010913699279138627,-0.0032723125830005292,0.1189005552921137,15.05565215641247,41.56498106152717,-71.0625
1772056008.5327845,9.588758720857514,-22.395387619808876,129.1088723842247,-0.09129557713621353,-1.162141729650397,9.754477926554747,-0.0010888538468763799,-0.0119993181646811,0.10690141668465268,15.05565215641247,41.56498106152717,-71.0625
1772056008.621595,55.254676663707926,0.8676075685670257,-6.591799153049944,-0.023894925756925117,-1.1681094528439944,9.78977623888098,0.005454513278605937,-0.0021807629350125606,0.136353847812057,15.493265419693799,40.8775531512702,-71.0
1772056008.6915588,56.01439126069876,0.8964768900741006,-6.617638856116909,0.07422532567341751,-1.1747200057813292,9.828899624977323,-0.0076343776132479675,-0.008727904182051101,0.0818123086872342,15.05565215641247,41.56498106152717,-71.0625
1772056008.7697542,56.252088547334125,0.9015862343771626,-6.6441156534119505,-0.0007050457684581073,-1.2400516059177198,9.78578126051925,-0.006543007685334105,-0.01200021676505163,0.1090830782496456,15.05565215641247,41.56498106152717,-71.0625
1772056008.822807,56.53956863876405,0.9159149593975466,-6.66714699402425,-0.03718882203897372,-1.2902170748319675,9.733670688684859,0.007634197893173862,0.009818734949742646,0.0916297857297023,15.05565215641247,41.56498106152717,-71.5
1772056008.902861,56.704855871284956,0.92885128516289,-6.671852842012346,-0.06146836759651705,-1.3236016340093937,9.6989916852423,-0.0010902916074692272,-0.003272672023148741,0.07417649320975901,15.05565215641247,41.56498106152717,-71.5
1772056008.9820473,57.28377538015745,0.8944223040896068,-6.6886123008034994,-0.0676095371968207,-1.2320832353328368,9.736125206572877,-0.006540132164148411,-0.02945350904811635,0.09272061651219876,16.24320362630425,41.25267671260153,-71.5
1772056009.0295558,57.83450053601058,0.9143294921559968,-6.6910262240172855,-0.06327118833740522,-1.217618586951542,9.805138903555585,0.013090688092594966,-0.004361166429876909,0.08944812416470939,15.493203636483358,41.252553146180645,-71.5
1772056009.100994,57.83450053601058,0.9143294921559968,-6.6910262240172855,-0.06327118833740522,-1.217618586951542,9.805138903555585,0.013090688092594966,-0.004361166429876909,0.08944812416470939,15.493203636483358,41.252553146180645,-71.5
1772056009.1744888,58.46701967610975,0.9302548308164728,-6.705638408046536,0.008880093686786807,-1.2490098061169308,9.794443053240517,0.002183997896346467,-0.014180440539841873,0.09926560120717749,15.868080064972924,42.00261491921198,-70.5625
1772056009.289504,58.817551646071685,0.941204810022617,-6.699854144695496,0.036084498688868434,-1.2493360712351929,9.819717695957962,-0.008725208380939512,-0.008728083902125207,0.08835729338221293,14.368152165743318,41.564867792308036,-72.25
1772056009.3584354,59.301724657497225,0.9826053089687722,-6.704862686123837,-0.06623529350444787,-1.2495730375138696,9.839882800057483,-0.008726825861606466,0.0010893930070986976,0.0818123086872342,14.368152165743318,41.564867792308036,-72.25
1772056009.390376,59.60080656658417,0.9679477783800428,-6.688403003943169,-0.13433844359031766,-1.1861736143487802,9.853302451576742,0.0021827398558277255,-0.0065446251660010585,0.07526732399225546,14.743327213083344,40.50242958993888,-71.0625
1772056009.4899297,59.801207442634485,0.9735633042222279,-6.690058448839894,-0.08599114030564038,-1.1807628032415225,9.778605287072494,0.00872754474190289,-0.0054527160778648776,0.08508480103472356,14.743327213083344,40.50242958993888,-71.0625
1772056009.5348275,60.13880495780234,0.9942322634846668,-6.702663917709256,-0.05383253265905588,-1.0801537306967104,9.688753818029086,-0.007637253134433662,0.008725388101013618,0.07526732399225546,15.868450764235567,39.7526149497493,-71.0625
1772056009.6097476,60.460996535808036,1.0130801937851899,-6.699760820778254,-0.03576046755275521,-1.110208306115412,9.669100009575205,-0.00327141398263,-0.006545523766371588,0.10690141668465268,15.868450764235567,39.7526149497493,-71.0625
1772056009.6291683,60.69753131303823,0.9956624989235638,-6.699736033786711,-0.030418422180130158,-1.1636615091934255,9.706197295206364,-0.0032712342625558937,-0.007636354534063133,0.05235987755982989,15.055765425631611,40.877481070858025,-71.0625
1772056009.6991014,60.69753131303823,0.9956624989235638,-6.699736033786711,-0.030418422180130158,-1.1636615091934255,9.706197295206364,-0.0032712342625558937,-0.007636354534063133,0.05235987755982989,15.055765425631611,40.877481070858025,-71.0625
1772056009.7855859,61.11967795145877,1.0299789265969002,-6.698637499583017,-0.041213984214729334,-1.2061843218225627,9.74062437551606,-0.00436332307076618,-7.188802964236975e-07,0.09272061651219876,14.743378699092045,40.18992959418017,-71.875
1772056009.878727,61.486408609235404,1.0392472445074987,-6.743276514730944,-0.007289538926756245,-1.2108025082174632,9.733725291516567,-0.006546062926593907,0.006543906285704635,0.07090400086226964,14.743378699092045,40.18992959418017,-71.875
1772056009.927836,61.88682545516583,1.011139573561877,-6.762242398296514,0.015288453825429852,-1.2239111946605046,9.712408469646126,-0.004362783910543862,-0.003273211183371059,0.07635815477475191,14.368512567804219,39.3773678219971,-71.5
1772056010.047083,62.234379877648934,0.9872333464554212,-6.753533323954103,0.03696981707347507,-1.2495834369049432,9.786885243949177,-0.005454153838457725,-8.986003705296219e-07,0.07963064712224129,14.743574345925106,39.002429610297085,-71.0625
1772056010.1174002,62.342193323381814,0.9719904232854265,-6.757518886079308,0.03805674650747598,-1.2764814650352994,9.834758728544754,-0.0032730314632969533,0.0032719531428523174,0.044724062082354694,14.743574345925106,39.002429610297085,-71.0625
1772056010.1603339,62.50441514436671,0.9935389457140078,-6.7488513390181115,0.015371468890912298,-1.3378721117628274,9.846547327517332,-0.004364760831359027,0.008725927261235937,0.06872233929727672,14.056125841264654,38.689816345319244,-70.5625
1772056010.2724633,62.722805471361525,1.014989950567475,-6.7742809890431435,0.00027356779896138203,-1.372036678057701,9.854392508446303,-0.00872754474190289,0.0054527160778648776,0.08399397025222712,14.056125841264654,38.689816345319244,-70.5625
1772056010.346563,63.053974239573705,1.003397679590721,-6.774210101899424,-0.009773916723126021,-1.3947728152837275,9.859613388718119,-0.0032717734227782117,-0.004363862230988498,0.05781403147231216,12.556311211254188,37.56456922774614,-71.875
1772056010.4028697,63.053974239573705,1.003397679590721,-6.774210101899424,-0.009773916723126021,-1.3947728152837275,9.859613388718119,-0.0032717734227782117,-0.004363862230988498,0.05781403147231216,12.556311211254188,37.56456922774614,-71.875
1772056010.421088,63.267146618074136,1.0160116561786772,-6.772338751557285,-0.013124662891805253,-1.3530360112510886,9.829636709144765,-1.9769208151651683e-06,0.011999138444606995,0.05890486225480862,12.556311211254188,37.56456922774614,-71.875
1772056010.4417386,63.267146618074136,1.0160116561786772,-6.772338751557285,-0.013124662891805253,-1.3530360112510886,9.829636709144765,-1.9769208151651683e-06,0.011999138444606995,0.05890486225480862,12.556311211254188,37.56456922774614,-71.875
1772056010.5071988,63.418160964230864,1.0227138306219896,-6.780919401742646,-0.0019741003890978385,-1.3252584298994512,9.796307116920872,0.00327141398263,0.006545523766371588,0.08617563181722002,13.68137297919597,37.18975458246702,-73.875
1772056010.5524592,63.60681548486919,1.021965371396462,-6.7865027688518476,0.005446474396509267,-1.3067727598058518,9.774126645611812,-0.0032694370618148345,-0.018544662210978585,0.020725784867432664,13.68137297919597,37.18975458246702,-73.875
1772056010.6039553,63.76137201043211,1.0050368839334796,-6.8092018782162365,0.033790645412965524,-1.2342548850699933,9.792816906800924,0.0010946048892477695,-0.02290726640144834,0.050178215994836975,11.056558364454165,36.0643221152626,-71.875
1772056010.6777465,63.89493912684637,0.9817890830846122,-6.810965261772046,0.015857146318171176,-1.1860011118820755,9.805255066838383,-0.0021805832149384544,-0.006545344046297482,0.06544984694978735,11.056558364454165,36.0643221152626,-71.875
1772056010.716977,64.01456405766555,0.9926838307592465,-6.816302159693745,0.003922603000896638,-1.1538887648554812,9.840293417058515,-0.007636713974211344,0.005452895797938983,0.039269908169872414,10.244058375481531,36.064188251639976,-75.0625
1772056010.7470398,64.01456405766555,0.9926838307592465,-6.816302159693745,0.003922603000896638,-1.1538887648554812,9.840293417058515,-0.007636713974211344,0.005452895797938983,0.039269908169872414,10.244058375481531,36.064188251639976,-75.0625
1772056010.78917,64.1379744078558,0.9762615456175838,-6.82991962706651,-0.007358751550027995,-1.1693151360334544,9.830159930652801,-0.017454370603509354,0.006542109084963576,0.04908738521234052,10.244058375481531,36.064188251639976,-75.0625
1772056010.834246,64.28949151589383,0.9705825140247443,-6.871092970885073,-0.034937036954195054,-1.1795845204763873,9.880283107672687,-0.02508892793683143,-0.0010949643293959813,0.06217735460229799,8.4939863188206,36.50139992405344,-75.0625
1772056010.8642695,64.28949151589383,0.9705825140247443,-6.871092970885073,-0.034937036954195054,-1.1795845204763873,9.880283107672687,-0.02508892793683143,-0.0010949643293959813,0.06217735460229799,8.4939863188206,36.50139992405344,-75.0625
1772056010.881841,64.43769348454505,0.9638701316512636,-6.871253389902436,-0.08674119444022517,-1.1864241923530332,9.856772623042417,0.004366737752174193,-0.020725065705842934,0.028361600344907856,8.4939863188206,36.50139992405344,-75.0625
1772056010.9528735,64.70144892280715,0.9759403558772608,-6.863042358726052,-0.12121793593074612,-1.180940582597043,9.800985317662462,0.0010917293680620746,-0.005453974118383619,0.08944812416470939,9.55662016802282,35.68907498751039,-75.875
1772056010.9710548,64.70144892280715,0.9759403558772608,-6.863042358726052,-0.12121793593074612,-1.180940582597043,9.800985317662462,0.0010917293680620746,-0.005453974118383619,0.08944812416470939,9.55662016802282,35.68907498751039,-75.875
1772056010.9909487,64.76178949404206,0.9715034578897292,-6.876101003343027,-0.13412538502721036,-1.1839798715102796,9.763859489117136,-0.011997880404088253,-0.00763779229465598,0.0272707695624114,9.55662016802282,35.68907498751039,-75.875
1772056011.056976,64.97525204898649,0.9783875541327668,-6.877845159420613,-0.05239933784200507,-1.1726071573179604,9.772603782016095,0.004364581111284922,-0.007635096493544391,0.055632369907319255,7.744305542253649,34.563776383928584,-77.0625
1772056011.0846195,65.08269070277602,0.9713848276239908,-6.868807282608908,-0.04149581348639812,-1.1784263543325293,9.7784230112602,0.0021800440547161365,0.009817836349372116,0.02945243112740431,7.744305542253649,34.563776383928584,-77.0625
1772056011.1440005,65.08269070277602,0.9713848276239908,-6.868807282608908,-0.04149581348639812,-1.1784263543325293,9.7784230112602,0.0021800440547161365,0.009817836349372116,0.02945243112740431,7.744305542253649,34.563776383928584,-77.0625
1772056011.2364335,65.49034443653673,1.0135514127107812,-6.854197228309977,-0.04613959653048316,-1.1648436896713548,9.723589128697697,0.007634737053396179,0.0065462426466680115,0.06872233929727672,6.556805558370568,34.56358073709553,-79.0625
1772056011.3077374,65.70693166543099,1.0324172745838656,-6.848568973811758,-0.05405558387906773,-1.1732626089605365,9.729078748469762,5.391602223177732e-07,-0.0032724923030746354,0.050178215994836975,5.55669230272357,35.25091597253684,-79.875
1772056011.3419514,65.77866468057039,1.0366652215172916,-6.8476353994907075,-0.05405558387906773,-1.1732626089605365,9.729078748469762,-0.0065451643262233765,0.0010897524472469095,0.02181661564992912,5.55669230272357,35.25091597253684,-79.875
1772056011.3654776,65.84979120352645,1.0177772464334336,-6.837285775671948,-0.012492021765311365,-1.1788575899570155,9.732732029105,0.005455232158902361,-0.0065440860057787405,0.044724062082354694,5.1816923078131225,35.2508541893264,-80.6875
1772056011.406426,65.91214169393596,1.0176283688462209,-6.830458430587224,0.015168615650624216,-1.1859260989720586,9.74185346997257,0.0010902916074692272,0.003272672023148741,0.026179938779914945,5.1816923078131225,35.2508541893264,-80.6875
1772056011.4429321,65.91214169393596,1.0176283688462209,-6.830458430587224,0.015168615650624216,-1.1859260989720586,9.74185346997257,0.0010902916074692272,0.003272672023148741,0.026179938779914945,5.1816923078131225,35.2508541893264,-80.6875
1772056011.5184717,66.09679174279503,1.050122160557036,-6.823490495400402,-0.043361346730343364,-1.260630230665451,9.616027305761758,-0.010908846837137767,0.003270695102333576,0.011999138607461015,2.9941202570900045,35.687993781327684,-80.6875
1772056011.5970001,66.20879668961959,1.023392674020486,-6.861036046072487,-0.08230938788158097,-1.2570831120796229,9.583905099289158,0.001091010487765651,-0.001090651047617439,0.02181661564992912,3.244120253696969,35.688034970134645,-81.875
1772056011.6686156,66.20879668961959,1.023392674020486,-6.861036046072487,-0.08230938788158097,-1.2570831120796229,9.583905099289158,0.001091010487765651,-0.001090651047617439,0.02181661564992912,3.244120253696969,35.688034970134645,-81.875
1772056011.7537131,66.2926334871172,0.9855291705883997,-6.871311919033123,-0.10823383431137583,-1.2246165393273933,9.602669470198034,-0.006546602086816224,0.009816398588779269,0.039269908169872414,3.244120253696969,35.688034970134645,-81.875
1772056011.8437524,66.57117794988503,0.9709670212490348,-6.897858978062321,0.041312312450575525,-1.1886023794882827,9.679179689170093,-0.00327141398263,-0.006545523766371588,0.05345070834232634,0.7436981023559837,38.25012304728642,-85.5
1772056011.8830967,66.58704310961012,0.9640394682744469,-6.911114111814806,0.004133315527088721,-1.1322068533791232,9.699524762550086,-0.013089430052076224,-0.0032746489439639064,0.018544123302439753,0.7436981023559837,38.25012304728642,-85.5
1772056011.9495866,66.58704310961012,0.9640394682744469,-6.911114111814806,0.004133315527088721,-1.1322068533791232,9.699524762550086,-0.013089430052076224,-0.0032746489439639064,0.018544123302439753,0.7436981023559837,38.25012304728642,-85.5
1772056012.0328934,66.69160970003902,0.968405016361588,-6.92029368094243,-0.033989889381201066,-1.0913333535694292,9.753205522102942,-0.013091227252817283,0.007633658732951544,0.025089107997418487,-1.0689254394653884,38.99982441825686,-87.0625
1772056012.093239,66.85123515069404,0.9915267093155006,-6.9520898282619354,-0.059361007508206755,-1.0607873843710682,9.79896480305395,-0.0032750083841121182,0.015271091587459313,0.030543261909900768,-1.0689254394653884,38.99982441825686,-87.0625
1772056012.1504576,66.95282237851593,0.9841258284205007,-6.943436895572628,-0.059519644898174205,-1.0404566274671856,9.829417093362187,0.00218076293501256,0.005454513278605936,0.02181661564992912,-3.2566725426180874,40.49946399583774,-88.25
1772056012.238521,67.10934063119227,1.001396145212083,-6.9283454319293805,-0.059625216309101794,-1.026926735857087,9.849682752387945,0.0032742895038156946,-0.010907768516693131,0.039269908169872414,-2.8818476001372217,41.562025764627776,-88.25
1772056012.2826195,67.2510956356474,1.0002156817952879,-6.9502240324114055,-0.03962425180760837,-1.021264549043429,9.863169322087343,-0.022906547521151916,-0.005457927960013949,0.0272707695624114,-5.06934757044816,41.56166536256688,-88.75
1772056012.3732035,67.29476975564387,1.0145475091809812,-6.9675170279883085,-0.06645517330030606,-1.0175030404654084,9.872144483567437,-0.0054527160778648776,-0.00872754474190289,0.01090830782496456,-5.06934757044816,41.56166536256688,-88.75
1772056012.3965096,67.34292093432494,1.0563528137062725,-6.949680506994037,-0.07091938269215867,-1.0818998272653548,9.854701571322082,-5.5713222972836555e-06,0.033815753798437896,0.019634954084936207,-4.757166787943396,43.49921682227955,-90.75
1772056012.4542634,67.37780573882513,1.056544328068149,-6.959158501685676,-0.11403160411697877,-1.124761783017174,9.769501050511868,-0.0021805832149384544,-0.006545344046297482,-0.002181661564992912,-4.757166787943396,43.49921682227955,-90.75
1772056012.4751732,67.37780573882513,1.056544328068149,-6.959158501685676,-0.11403160411697877,-1.124761783017174,9.769501050511868,-0.0021805832149384544,-0.006545344046297482,-0.002181661564992912,-4.757166787943396,43.49921682227955,-90.75
1772056012.5022607,67.47434267810141,1.0662493959823571,-6.963716869100975,-0.12935398397456435,-1.0796912747098066,9.752942396152683,0.006547500687186754,-0.015270552427236996,0.031634092692397225,-6.569728546554328,43.87391819833954,-88.0
1772056012.5300946,67.47434267810141,1.0662493959823571,-6.963716869100975,-0.12935398397456435,-1.0796912747098066,9.752942396152683,0.006547500687186754,-0.015270552427236996,0.031634092692397225,-6.569728546554328,43.87391819833954,-88.0
1772056012.5989423,67.50466339513596,1.0448430687582162,-6.979300613945133,-0.1395508566075895,-1.0496973549018203,9.688401009331823,-0.004361885310173333,-0.008727365021828784,0.014180800172453928,-7.007341809835656,44.56134610859651,-89.5625
1772056012.6254444,67.53207733129906,1.00573694203755,-7.006207714637988,-0.09950464704682876,-1.0330741322405814,9.698971224694183,-0.0130887111717798,-0.007637972014730086,0.025089107997418487,-7.007341809835656,44.56134610859651,-89.5625
1772056012.6710248,67.53207733129906,1.00573694203755,-7.006207714637988,-0.09950464704682876,-1.0330741322405814,9.698971224694183,-0.0130887111717798,-0.007637972014730086,0.025089107997418487,-7.007341809835656,44.56134610859651,-89.5625
1772056012.698804,67.58162627129184,0.9581919444235031,-7.00549686859125,-0.07285434192961465,-1.0220115632530913,9.736111590306665,0.017456527244398626,-0.019632078297262115,0.004363323129985824,-8.070387547107476,47.873671011209204,-89.5625
1772056012.7472398,67.58162627129184,0.9581919444235031,-7.00549686859125,-0.07285434192961465,-1.0220115632530913,9.736111590306665,0.017456527244398626,-0.019632078297262115,0.004363323129985824,-8.070387547107476,47.873671011209204,-89.5625
1772056012.7727928,67.68773995089472,0.9394689465182985,-7.005013909460778,-0.10529553650630895,-1.0146578140385316,9.760828088736703,0.007637253134433662,-0.008725388101013618,0.02945243112740431,-8.070387547107476,47.873671011209204,-89.5625
1772056012.7919002,67.71928388118629,0.9335598363487426,-6.992917780284826,-0.1268864424791351,-0.9997286410972464,9.814072871121029,0.007636354534063133,-0.0032712342625558937,0.007635815477475192,-8.88277426686097,47.186037156917436,-91.0625
1772056012.8228378,67.71928388118629,0.9335598363487426,-6.992917780284826,-0.1268864424791351,-0.9997286410972464,9.814072871121029,0.007636354534063133,-0.0032712342625558937,0.007635815477475192,-8.88277426686097,47.186037156917436,-91.0625
1772056012.8482244,67.7982316934605,0.9405173343656967,-7.033267207962634,-0.10777848086512884,-1.1436630684764713,9.83278112047801,-0.015271271307533418,-0.002184177616420573,0.020725784867432664,-8.88277426686097,47.186037156917436,-91.0625
1772056012.875133,67.81432733951846,0.9317657619054418,-7.031112262406555,-0.0950722661044716,-1.1792378121298976,9.845231251440243,-0.0065424685251117875,-0.015272709068126266,0.02181661564992912,-8.88277426686097,47.186037156917436,-91.0625
1772056012.9042263,67.81432733951846,0.9317657619054418,-7.031112262406555,-0.0950722661044716,-1.1792378121298976,9.845231251440243,-0.0065424685251117875,-0.015272709068126266,0.02181661564992912,-8.88277426686097,47.186037156917436,-91.0625
1772056012.9751773,68.01566998061043,0.9460147951658853,-7.019715965344399,-0.05756676895989317,-1.258734146929558,9.77205762663259,0.008727904182051101,-0.0076343776132479675,0.03381575425739013,-9.195634664680577,49.37348564121967,-91.0625
1772056012.9891052,68.01566998061043,0.9460147951658853,-7.019715965344399,-0.05756676895989317,-1.258734146929558,9.77205762663259,0.008727904182051101,-0.0076343776132479675,0.03381575425739013,-9.195634664680577,49.37348564121967,-91.0625
1772056013.021974,68.05053419156914,0.9481673213540739,-7.019534560635546,-0.024881096063736775,-1.1320411355501943,9.717847540221683,0.008728443342273419,-0.010906869916322602,0.03490658503988659,-9.195634664680577,49.37348564121967,-91.0625
1772056013.0566084,68.18243558518823,0.9541653025748226,-7.00267400931863,-0.016509592521911046,-1.0477305562294623,9.681771333281567,-0.001090651047617439,-0.001091010487765651,0.02399827721492203,-11.008319989712389,50.49818700710055,-88.6875
1772056013.1025841,68.22846557825821,0.9354920588904897,-6.983301220902764,-0.010926325688535183,-1.0652152640646155,9.70459458446303,0.0032717734227782117,0.004363862230988498,0.018544123302439753,-11.008319989712389,50.49818700710055,-88.6875
1772056013.1741023,68.30398472226543,0.9400943832452032,-6.982647926288472,-0.0072052127336857605,-1.1103022584311162,9.719783203171872,0.002181481815308984,0.0010911902078397568,0.038179077387375956,-11.00849504214197,51.56068699268015,-88.6875
1772056013.2584355,68.37978990828641,0.9407763114493114,-6.976210990523749,-0.004728853629788801,-1.1403071495272943,9.753306841205854,-0.002181302095234878,-0.002182020975531302,0.02181661564992912,-11.00849504214197,51.56068699268015,-88.6875
1772056013.2921605,68.49502818699244,0.9633012743048917,-6.972992982091062,-0.02984368310082875,-1.153497416465866,9.75146451856186,0.014182058020508828,-0.007633479012877438,-0.002181661564992912,-12.196231861665071,52.99799132633713,-90.0
1772056013.3966086,68.49502818699244,0.9633012743048917,-6.972992982091062,-0.02984368310082875,-1.153497416465866,9.75146451856186,0.014182058020508828,-0.007633479012877438,-0.002181661564992912,-12.196231861665071,52.99799132633713,-90.0
1772056013.4664717,68.68960425400284,0.9980239830280493,-6.930533979709238,-0.07440981977307942,-1.206199775472382,9.784099716290548,0.011998958724532889,0.00109280768850671,0.04036073895236887,-12.196427508498132,54.185491310220215,-88.25
1772056013.5037189,68.68960425400284,0.9980239830280493,-6.930533979709238,-0.07440981977307942,-1.206199775472382,9.784099716290548,0.011998958724532889,0.00109280768850671,0.04036073895236887,-12.196427508498132,54.185491310220215,-88.25
1772056013.5586693,68.72539954093556,0.9846814658614517,-6.932431707597219,-0.10972315748972804,-1.1993659933526473,9.838647102463167,0.0032712342625558937,0.007636354534063133,0.020725784867432664,-14.384102531238652,55.24763089373891,-86.25
1772056013.6046517,68.72539954093556,0.9846814658614517,-6.932431707597219,-0.10972315748972804,-1.1993659933526473,9.838647102463167,0.0032712342625558937,0.007636354534063133,0.020725784867432664,-14.384102531238652,55.24763089373891,-86.25
1772056013.6807728,68.8476104619709,0.988058502174965,-6.925176663034718,-0.1041990421439538,-1.1095167470260923,9.8193183447498,0.0,0.0,0.026179938779914945,-12.50933939232644,56.68543979028116,-88.25
1772056013.7077656,68.8476104619709,0.988058502174965,-6.925176663034718,-0.1041990421439538,-1.1095167470260923,9.8193183447498,0.0,0.0,0.026179938779914945,-12.50933939232644,56.68543979028116,-88.25
1772056013.7888083,68.99319595727977,0.9911073977985503,-6.927986190512811,-0.11276306409056033,-1.1431366767442468,9.799475695801663,0.0010901118873951213,0.004363502790840286,0.037088246604879506,-13.197086515837354,58.1853265007038,-85.5
1772056013.8056977,69.05413925386017,0.9810906774170698,-6.919975830281236,-0.1452221160757029,-1.172204996733426,9.819721751656784,0.010908667117063661,-0.0021798643346420308,0.008726646259971648,-13.197086515837354,58.1853265007038,-85.5
1772056013.897142,69.15605608040518,0.9659549698263417,-6.925145993950074,-0.1668232525804466,-1.191549638971814,9.833195275665105,-0.0032730314632969533,0.0032719531428523174,0.03490658503988659,-13.57214829395824,58.56026471240381,-86.0
1772056013.9914818,69.25065295543244,0.9792490161213646,-6.91081104798385,-0.17116323263809094,-1.2044216289137242,9.798675303188366,-0.0032744692238898007,0.011998599284384676,0.015271630954950384,-13.57214829395824,58.56026471240381,-86.0
1772056014.0640993,69.37107808700677,0.9807730047527339,-6.913863055687007,-0.175993706781035,-1.0961092475759777,9.72027326063748,-0.0010904713275433331,-0.002181841255457196,0.00545415391248228,-15.509967480916156,60.49744547285384,-85.0625
1772056014.1250489,70.2433982608965,1.0344854724960542,-6.871188436594856,-0.18062440612121172,-1.0606249858174077,9.726872075316361,0.013090867812669072,-0.005451997197568454,0.18653206380689397,-14.384720363343055,58.99763084284337,-84.25
1772056014.1723523,69.59757251913369,0.9979264540847237,-6.8922262802288365,-0.14690654977483983,-1.0570752136027133,9.704502619113011,-0.004363143350692074,-0.0010915496479879687,0.032724923474893676,-14.384720363343055,58.99763084284337,-84.25
1772056014.227449,69.59757251913369,0.9979264540847237,-6.8922262802288365,-0.14690654977483983,-1.0570752136027133,9.704502619113011,-0.004363143350692074,-0.0010915496479879687,0.032724923474893676,-14.384720363343055,58.99763084284337,-84.25
1772056014.2887816,69.67710828994467,0.9992543917732005,-6.91122565475126,-0.1244676930294641,-1.054712879847388,9.709686666136797,0.010909026557211874,-0.004361525870025121,0.031634092692397225,-15.885194014264883,61.872383670981705,-83.5
1772056014.3645158,69.74901578886562,1.0603656260761272,-6.930644052022201,-0.10953378227458727,-1.0598309964460544,9.713136591521527,0.014178463619026709,0.014183136340953462,0.02945243112740431,-15.072580756073108,61.185017543935174,-83.5
1772056014.4527187,69.790517589901,1.0508291647519452,-6.912911608576899,-0.11297587813760677,-1.0632392503679242,9.83251138808305,0.0010917293680620746,-0.005453974118383619,0.007635815477475192,-15.072580756073108,61.185017543935174,-83.5
1772056014.5035026,69.8168754339926,1.0346427832016116,-6.899455498361772,-0.11526104323730114,-1.0989585218994282,9.911953981690893,0.00436332307076618,7.188802964236975e-07,-0.00545415391248228,-14.01025582292309,62.24769258194435,-81.0625
1772056014.5414193,69.85267639899149,1.0213107252858995,-6.901472648971875,-0.09336436007682315,-1.1327607752065036,9.867813900792731,0.0010926279684326042,-0.010908127956841344,-0.003272492347489368,-14.01025582292309,62.24769258194435,-81.0625
1772056014.5710385,69.85267639899149,1.0213107252858995,-6.901472648971875,-0.09336436007682315,-1.1327607752065036,9.867813900792731,0.0010926279684326042,-0.010908127956841344,-0.003272492347489368,-14.01025582292309,62.24769258194435,-81.0625
1772056014.5992017,69.92816643007004,1.0275745086511683,-6.890976699910439,-0.07544890374750843,-1.1452199110760528,9.788262494422225,0.0010911902078397568,-0.0021814818153089843,0.039269908169872414,-14.385255817833537,62.24763079873391,-81.5
1772056014.6215127,69.92816643007004,1.0275745086511683,-6.890976699910439,-0.07544890374750843,-1.1452199110760528,9.788262494422225,0.0010911902078397568,-0.0021814818153089843,0.039269908169872414,-14.385255817833537,62.24763079873391,-81.5
1772056014.6929858,70.00739602921713,1.0346779836185367,-6.905949671257267,-0.06686596810461379,-1.1869629945634028,9.73532192213009,-0.017454370603509354,0.006542109084963576,0.028361600344907856,-14.385255817833537,62.24763079873391,-81.5
1772056014.756034,70.14507767437689,1.0079566760274314,-6.903528874034103,-0.03171103333434255,-1.2332253097239885,9.815925641013617,0.024002769891066637,-0.027266815350658294,0.028361600344907856,-14.697879380013124,62.9975793025461,-81.5
1772056014.7789125,70.14507767437689,1.0079566760274314,-6.903528874034103,-0.03171103333434255,-1.2332253097239885,9.815925641013617,0.024002769891066637,-0.027266815350658294,0.028361600344907856,-14.697879380013124,62.9975793025461,-81.5
1772056014.8283353,70.23713780372286,1.0024547695854877,-6.850440923656467,-0.010998561757966934,-1.2421800836198356,9.877500570339883,0.02181805311442375,-0.008723051740050242,0.04145156973486533,-14.38562651709618,64.49763076819659,-80.25
1772056014.8604949,70.27208236480843,0.9994606142367692,-6.879381567282985,0.006122201494939948,-1.197962159562716,9.901752439432887,-0.025088029336460902,-0.006549118167853707,0.018544123302439753,-14.38562651709618,64.49763076819659,-80.25
1772056014.88136,70.27208236480843,0.9994606142367692,-6.879381567282985,0.006122201494939948,-1.197962159562716,9.901752439432887,-0.025088029336460902,-0.006549118167853707,0.018544123302439753,-14.38562651709618,64.49763076819659,-80.25
1772056014.9506662,70.44226193436688,1.0120385865664856,-6.893290841464889,0.0175158781882926,-1.1685356250492793,9.917891787403152,-0.005455232158902361,0.0065440860057787405,0.028361600344907856,-14.698075026846185,64.18507928642919,-79.875
1772056014.9971414,70.53211713370989,1.0077306526897074,-6.891146225672447,-0.05183546759963706,-1.1723810525467038,9.928632343189033,0.005455052438828254,-0.0054532552380871955,0.02399827721492203,-14.698075026846185,64.18507928642919,-79.875
1772056015.0664618,70.56358624534883,0.9998170939729417,-6.888917271159791,-0.09798801351621088,-1.17494014159,9.915709392840752,0.01745383144328704,-0.0032696167818889402,0.02399827721492203,-14.38573978631532,65.18513075886574,-77.5
1772056015.1036272,70.56358624534883,0.9998170939729417,-6.888917271159791,-0.09798801351621088,-1.17494014159,9.915709392840752,0.01745383144328704,-0.0032696167818889402,0.02399827721492203,-14.38573978631532,65.18513075886574,-77.5
1772056015.1397026,70.71035174020194,0.9867171012507584,-6.868878049291453,-0.09190413561093802,-1.1866724593761169,9.870313084962271,0.0021832790160500434,-0.009817117469075693,0.05126904677733343,-14.38573978631532,65.18513075886574,-77.5
1772056015.1687675,70.71035174020194,0.9867171012507584,-6.868878049291453,-0.09190413561093802,-1.1866724593761169,9.870313084962271,0.0021832790160500434,-0.009817117469075693,0.05126904677733343,-14.38573978631532,65.18513075886574,-77.5
1772056015.194895,70.7801500047789,0.9909210593313161,-6.868385564833491,-0.0878597918234801,-1.167719292508848,9.71967832771563,-0.0032719531428523174,-0.003273031463296953,0.020725784867432664,-14.38593543314838,66.37263074274883,-78.5625
1772056015.2273633,70.80081713454156,0.9726496099221597,-6.865109701370752,-0.08516391721407522,-1.1818670649747796,9.619432579468485,-0.0010892132870245917,-0.00981765662929801,-0.008726646259971648,-14.38593543314838,66.37263074274883,-78.5625
1772056015.2836447,70.83736775547509,0.9747660991257239,-6.864268728720628,-0.07668402844970272,-1.164520253965248,9.643038169926015,-1.2580405187414707e-06,0.007635815373840815,0.030543261909900768,-13.573373660965306,65.997764611461,-77.0625
1772056015.3215103,70.89681722924776,0.9897474524772202,-6.855671644169844,-0.07103634820644514,-1.1797370383103327,9.662092538391098,0.005454153838457725,8.986003705296219e-07,0.00545415391248228,-13.573373660965306,65.997764611461,-77.0625
1772056015.3506007,70.89681722924776,0.9897474524772202,-6.855671644169844,-0.07103634820644514,-1.1797370383103327,9.662092538391098,0.005454153838457725,8.986003705296219e-07,0.00545415391248228,-13.573373660965306,65.997764611461,-77.0625
1772056015.3845918,70.96118100292536,0.9945044758614809,-6.820560000684819,-0.04720886349568946,-1.1798249965757615,9.704879013119243,-0.010909385997360086,0.006543187405408211,0.038179077387375956,-14.386048702367521,67.06013073341798,-76.25
1772056015.4138522,70.68930448678418,1.0206518281219632,-6.809733485940306,-0.08152861351991178,-1.1798917986884687,9.733352934094583,-0.041462532096799176,0.06653384746636822,-0.11671889372712078,-14.386048702367521,67.06013073341798,-76.25
1772056015.440837,70.49236405459087,1.0918494205632785,-6.85616936754705,-0.2080664853037946,-1.1799533396121331,9.682054664575427,-0.09928860402941615,0.1396099837377741,-0.044724062082354694,-14.3861207827797,67.49763072748016,-77.5
1772056015.4621394,70.53211713370989,1.0077306526897074,-6.891146225672447,-0.29227712770460584,-1.1733040710855365,9.647916239249646,-0.027251718864433398,-0.11563255437715642,0.03599741582238305,-14.3861207827797,67.49763072748016,-77.5
1772056015.4825985,70.53211713370989,1.0077306526897074,-6.891146225672447,-0.29227712770460584,-1.1733040710855365,9.647916239249646,-0.027251718864433398,-0.11563255437715642,0.03599741582238305,-14.3861207827797,67.49763072748016,-77.5
1772056015.504527,70.55004525508036,1.1293476653497707,-6.891507311366893,-0.19109812141763774,-1.1688531543001326,9.748966631717353,0.03052996220987942,0.08072650897124929,0.022907446432425576,-14.3861207827797,67.49763072748016,-77.5
1772056015.559276,70.55004525508036,1.1293476653497707,-6.891507311366893,-0.19109812141763774,-1.1688531543001326,9.748966631717353,0.03052996220987942,0.08072650897124929,0.022907446432425576,-14.3861207827797,67.49763072748016,-77.5
1772056015.606581,70.81790972606098,1.098132559849184,-6.930949469457786,-0.1237772988439718,-1.0889535506753065,9.90318744348807,-0.0010965818100629346,0.03490640484605533,0.06435901616729091,-13.573620793807066,67.49776459110278,-77.0625
1772056015.7009218,71.18039426934172,1.0899155844546191,-6.897453132337016,-0.09152878282492327,-1.0004026697955777,10.181163846503244,0.054544054465614736,-0.015262644743976334,0.032724923474893676,-13.573734063026206,68.18526458177193,-76.5625
1772056015.7374978,71.18039426934172,1.0899155844546191,-6.897453132337016,-0.09152878282492327,-1.0004026697955777,10.181163846503244,0.054544054465614736,-0.015262644743976334,0.032724923474893676,-13.573734063026206,68.18526458177193,-76.5625
1772056015.7650032,71.24016005191602,1.0975960807105256,-6.9025555577508655,-0.14113288757734044,-1.0370774229833126,10.207535420505447,0.0076349167734702855,0.0054554118789764666,0.044724062082354694,-13.573734063026206,68.18526458177193,-76.5625
1772056015.8213727,71.48638965875415,1.1083030762342179,-6.894233584242894,-0.17415709216731262,-0.9812013816598564,10.22508540841413,-0.004364581111284922,0.007635096493544391,0.0545415391248228,-12.511347346665751,68.87293962487067,-77.75
1772056015.8823757,71.85741904401554,1.119870860659768,-6.863881491707407,-0.18609568968379606,-0.9640855169329654,10.116340707857649,-0.01963531325859602,0.0021784265740491834,0.10471975511965978,-12.511347346665751,68.87293962487067,-77.75
1772056015.9397779,72.21484990127735,1.0995555485680055,-6.838917216771827,-0.19069668355550715,-0.9460043257054767,10.007176095614698,0.0010946048892477695,-0.02290726640144834,0.11562806294462433,-12.198909134117484,69.24799110578981,-77.5
1772056015.976941,72.47492413435769,1.1124625855508066,-6.821036717550003,-0.15027103972643108,-0.9406545536272218,9.924492930493676,-0.009816039148631057,-0.008728263622199313,0.1559888018969932,-12.198909134117484,69.24799110578981,-77.5
1772056016.0053039,72.47492413435769,1.1124625855508066,-6.821036717550003,-0.15027103972643108,-0.9406545536272218,9.924492930493676,-0.009816039148631057,-0.008728263622199313,0.1559888018969932,-12.198909134117484,69.24799110578981,-77.5
1772056016.0374904,72.77109732903175,1.1048735282057394,-6.819326627806574,-0.12336106072187217,-0.9805807916749608,9.869468207737109,0.00873239718390375,-0.034905146805536594,0.12435470920459599,-12.198734081687903,68.18549112021022,-78.5625
1772056016.0981874,73.22110501041952,1.1260211474182673,-6.818941766761886,-0.16899335813571736,-1.1075150783161885,9.89306188014079,-1.0783204446355463e-06,0.006544984606149271,0.1439896632895322,-12.198734081687903,68.18549112021022,-78.5625
1772056016.1908884,73.85935546092449,1.1668304674892391,-6.793163626330213,-0.2495543509864997,-1.0916433451390863,9.90876320556685,-0.006543367125482318,-0.00981855522966854,0.12762720155208535,-10.26153272683439,69.99831030886465,-78.25
1772056016.2574744,11.866308898703279,-29.940999730591567,132.34413577352376,-0.25298736125144633,-1.0977981754485746,9.929247597364554,0.0032746489439639064,-0.013089430052076223,0.1505346479845109,-10.26153272683439,69.99831030886465,-78.25
1772056016.32681,75.12205344422154,1.2203041950106301,-6.752065165104608,-0.23185676072473901,-1.09854517673117,9.92280906103636,-0.0076327601325810145,-0.018545381091275008,0.1538071403320003,-11.011532716655283,69.99818674244376,-77.875
1772056016.3915164,75.56607652889373,1.228093429194334,-6.735137455799876,-0.17430813051354183,-1.0990351331198467,9.848276941179405,-0.007634737053396179,-0.0065462426466680115,0.16253378659197193,-11.011532716655283,69.99818674244376,-77.875
1772056016.5498955,76.79758745373914,1.258764912439465,-6.736322198033115,-0.1004780331575196,-1.159788539786698,9.74895446840533,-0.005452356637716665,-0.01090920627728598,0.14944381720201447,-8.88677987833785,71.49853682694472,-78.25
1772056016.6121109,77.09589378085946,1.266515465096983,-6.732162849029838,-0.07682408393982047,-1.246833826907594,9.722543316744545,0.009820172710335494,-0.01636084403470622,0.1265363707695889,-8.074228403356514,71.18617069480862,-77.75
1772056016.6699495,77.71246007838612,1.299401739534319,-6.709907053274299,-0.06108264496736767,-1.3047614931269813,9.704966990346188,0.011999138444606995,1.9769208151651683e-06,0.13744467859455345,-7.386656332275182,70.74878396996559,-78.25
1772056016.720642,77.71246007838612,1.299401739534319,-6.709907053274299,-0.06108264496736767,-1.3047614931269813,9.704966990346188,0.011999138444606995,1.9769208151651683e-06,0.13744467859455345,-7.386656332275182,70.74878396996559,-78.25
1772056016.776725,78.17984337754879,1.3169241037657633,-6.703514120395376,-0.06734678072486948,-1.2563415603148647,9.753482152200261,-0.002182020975531302,0.002181302095234878,0.12544553998709243,-7.386656332275182,70.74878396996559,-78.25
1772056016.810251,78.75057647080527,1.3449445669173914,-6.701480561738928,-0.08155082808226272,-1.224120289288415,9.682069987537378,0.0010915496479879687,-0.004363143350692074,0.1265363707695889,-6.199454967242563,72.56147959219913,-78.25
1772056016.874704,79.24264686155175,1.3540379295438285,-6.693946597902827,-0.10772902123859768,-1.202680148978702,9.701448223826766,0.004365479711655451,-0.013089250332002117,0.11671889372712078,-6.199454967242563,72.56147959219913,-78.25
1772056016.9261248,79.24264686155175,1.3540379295438285,-6.693946597902827,-0.10772902123859768,-1.202680148978702,9.701448223826766,0.004365479711655451,-0.013089250332002117,0.11671889372712078,-6.199454967242563,72.56147959219913,-78.25
1772056016.9954972,79.72463799100608,1.3678442627345728,-6.681927698651445,-0.12849432576719633,-1.1951027495531275,9.710999111900952,1.9769208151651683e-06,-0.011999138444606995,0.1265363707695889,-5.886893188273418,72.1865310832974,-78.25
1772056017.0527015,80.29739051129735,1.360870961584062,-6.681233467909096,-0.14231615959053565,-1.1733345165709104,9.72070023293123,-0.002178965734271501,-0.016362820955521384,0.12326387842209953,-5.886893188273418,72.1865310832974,-78.25
1772056017.1125858,80.90187392262405,1.3961282937591877,-6.673973054088091,-0.1280958983433266,-1.1755697011254451,9.750572002559494,-0.0021805832149384544,-0.006545344046297482,0.1407171709420428,-4.76220211959428,74.06171640748094,-77.5
1772056017.1681666,81.27893260252834,1.4082165988333168,-6.6685703420729805,-0.1186313710847525,-1.1837474148016784,9.780486666679531,0.002183997896346467,-0.014180440539841873,0.1407171709420428,-4.76220211959428,74.06171640748094,-77.5
1772056017.2118883,81.94824154432466,1.4274652257546716,-6.659103320447772,-0.12236596440705953,-1.2025716919237652,9.790359206360764,-0.004360986709802803,-0.01418151886028651,0.14944381720201447,-3.699774214426861,74.4993914539727,-77.5
1772056017.321648,82.50383567990944,1.4393167617639595,-6.660556128587562,-0.14492196451642828,-1.2151023448154092,9.780203712698532,-0.007634018173099755,-0.010909565717434191,0.17235126363444003,-3.699774214426861,74.4993914539727,-77.5
1772056017.39477,82.50383567990944,1.4393167617639595,-6.660556128587562,-0.14492196451642828,-1.2151023448154092,9.780203712698532,-0.007634018173099755,-0.010909565717434191,0.17235126363444003,-3.699774214426861,74.4993914539727,-77.5
1772056017.5010464,83.634824466284,1.4555667155296583,-6.6432307586719475,-0.1800155253358095,-1.1498522045238637,9.73999422803742,0.0010919090881361805,-0.006544804886075164,0.1712604328519436,-1.387274245812441,74.49977245043709,-77.875
1772056017.5839822,84.73027697347021,1.4686776041545375,-6.6465389416612,-0.203369898040347,-1.1064289650516663,9.713235265164824,-0.006542288805037682,-0.01636353983581781,0.16144295580947549,-1.0749493024833163,75.56232392202539,-77.5
1772056017.6819975,85.80274741327666,1.5305016297201517,-6.642366394371077,-0.15904580507165852,-1.114001095716502,9.756002788744912,0.0010922685282843923,-0.008726466421458254,0.16689710972195776,0.7376639421363157,74.8751225502067,-78.25
1772056017.786828,86.42624129286924,1.5519685055882777,-6.628623096571568,-0.14926793226223492,-1.116014955746986,9.733924118610279,0.0010926279684326042,-0.010908127956841344,0.15817046346198613,1.4876124459485085,75.1877461123863,-78.25
1772056017.8752317,87.64360571853022,1.5878135540402374,-6.606221238906996,-0.13941189759915007,-1.1407703876097741,9.719231010270585,0.001093167128654922,-0.014180620259915979,0.15817046346198613,1.050112451886321,75.18767403197411,-78.5625
1772056017.8991852,87.64360571853022,1.5878135540402374,-6.606221238906996,-0.13941189759915007,-1.1407703876097741,9.719231010270585,0.001093167128654922,-0.014180620259915979,0.15817046346198613,1.050112451886321,75.18767403197411,-78.5625
1772056018.017788,89.0060385200482,1.6862887982545214,-6.567312718649075,-0.12067035410302833,-1.2183838106401712,9.740849080857284,0.00654768040726086,-0.01636138319492854,0.14726215563702155,3.2373138033467974,77.0005344094355,-77.875
1772056018.093543,89.43555474547425,1.7158570110200686,-6.555918714624989,-0.1237289471998458,-1.1888255981592792,9.743910165532988,0.005456669919495208,-0.015270732147311101,0.15489797111449674,3.2373138033467974,77.0005344094355,-77.875
1772056018.199825,90.0481611726509,1.75092099907832,-6.536856919038821,-0.12575724211871483,-1.2126413895450616,9.75932773001939,-0.00436152587002512,-0.010909026557211873,0.16253378659197193,5.174865263059471,76.68835362693073,-78.5625
1772056018.3080409,90.58140104861296,1.7862450374547394,-6.523593982983841,-0.13714679371257243,-1.2017312927510504,9.76958794695961,-0.0010892132870245917,-0.00981765662929801,0.16471544815696484,5.987437332444285,76.25098749649116,-77.75
1772056018.3862114,92.02406639531979,1.7742537767383302,-6.507096059211669,-0.13469107808289976,-1.194469091834478,9.776416006719193,-0.003270695102333576,-0.010908846837137767,0.15926129424448257,5.987437332444285,76.25098749649116,-77.75
1772056018.4458642,92.02406639531979,1.7742537767383302,-6.507096059211669,-0.13469107808289976,-1.194469091834478,9.776416006719193,-0.003270695102333576,-0.010908846837137767,0.15926129424448257,5.987437332444285,76.25098749649116,-77.75
1772056018.4805686,92.78739961635185,1.773203122123758,-6.501364675030114,-0.12302369627630243,-1.1762540782269983,9.784305115922091,-0.004362065030247438,-0.0076365342541372385,0.14508049407202864,8.04981373803086,77.00132729396948,-77.0625
1772056018.6531513,93.6737686908614,1.7889701543948728,-6.493485402518692,-0.11525918401720651,-1.164132190146255,9.76279433631094,0.002183818176272361,-0.013089609772150328,0.136353847812057,7.737313742272156,77.00127580796078,-77.0625
1772056018.8469493,95.4409921134658,1.742870146970804,-6.521432610682593,-0.13229966944667673,-1.195270918657842,9.756761633827033,-0.0021804034948643483,-0.007636174813989027,0.11126473981463851,9.549751934462208,77.37657442172168,-77.5
1772056018.9433117,95.96796755204369,1.7239675036182553,-6.525982101455452,-0.124769636459619,-1.2236197994124627,9.76119001519413,-0.002181122375160772,-0.003272851743222847,0.11999138607461016,10.674751919193547,77.37675977135301,-77.0625
1772056019.1020253,-124.40687218514402,-4.733529457874258,0.5403265729086724,-0.15282494900605362,-1.2147621693412032,9.765921977716424,2.336360963377017e-06,-0.014180799979990086,0.12980886311707826,12.174690115624891,77.75200689910523,-77.0625
