timestamp,yaw,pitch,roll,ax,ay,az,gx,gy,gz,mx,my,mz
1773079136.1071575,-0.05645155609555396,0.893479596918625,-7.230418969406289,-0.1493232616786736,-1.232446333725261,9.765644726809422,0.0,0.0,0.0,-4.25,-13.75,-40.5625
1773079136.1199663,-0.05645155609555396,0.893479596918625,-7.230418969406289,-0.15289474991413904,-1.2349731194741422,9.773791837757898,0.0,0.001090830782496456,0.0,-3.875,-13.25,-40.1875
1773079136.1331096,-0.05645155609555396,0.893479596918625,-7.230418969406289,-0.1552715354387036,-1.2366546671639764,9.779213649084918,0.0,0.002181661564992912,0.0,-3.875,-13.25,-40.1875
1773079136.145021,-0.05645155609555396,0.893479596918625,-7.230418969406289,-0.1552715354387036,-1.2366546671639764,9.779213649084918,0.0,0.002181661564992912,0.0,-3.875,-13.25,-40.1875
1773079136.1577053,-0.05645155609555396,0.893479596918625,-7.230418969406289,-0.15016303624022856,-1.2344286066601233,9.782821803957448,0.0,0.004363323129985824,-0.002181661564992912,-3.875,-13.25,-40.1875
1773079136.173543,-0.05645155609555396,0.893479596918625,-7.230418969406289,-0.15016303624022856,-1.2344286066601233,9.782821803957448,0.0,0.004363323129985824,-0.002181661564992912,-3.875,-13.25,-40.1875
1773079136.1867561,0.22251186306650686,0.9112061361649403,-7.2634338108506835,-0.13003782855272167,-1.2362922999688537,9.788568102426705,-0.050178215994836975,-0.013089969389957472,0.18216874067690814,-5.0,-13.6875,-40.1875
1773079136.1987345,0.22251186306650686,0.9112061361649403,-7.2634338108506835,-0.13003782855272167,-1.2362922999688537,9.788568102426705,-0.050178215994836975,-0.013089969389957472,0.18216874067690814,-5.0,-13.6875,-40.1875
1773079136.2263854,0.5508138082089505,0.9251483424889146,-7.288616489236852,-0.022981599845043374,-1.495106168510588,10.009824460843395,-0.025089107997418487,-0.032724923474893676,0.19962203319685143,-5.0,-13.6875,-40.1875
1773079136.238988,0.640069041437828,0.9520014192182195,-7.308943611199304,0.04826312446348331,-1.6673439068847646,10.157068095774234,-0.019634954084936207,0.014180800172453928,0.06217735460229799,-5.0,-13.6875,-40.1875
1773079136.2526305,0.640069041437828,0.9520014192182195,-7.308943611199304,0.04826312446348331,-1.6673439068847646,10.157068095774234,-0.019634954084936207,0.014180800172453928,0.06217735460229799,-5.0,-13.6875,-40.1875
1773079136.279406,-164.74919886503048,0.9241446008637921,-7.262798939738651,0.052189240439938556,-1.7853113094584936,10.178119520733185,0.039269908169872414,-0.01090830782496456,-0.06872233929727672,-4.6875,-14.375,-40.1875
1773079136.2930884,-164.7865722108921,0.9477294026193882,-7.2455909953936875,0.05480202676468039,-1.7734992819914552,10.192129008883542,0.011999138607461015,0.025089107997418487,-0.018544123302439753,-4.6875,-14.375,-40.1875
1773079136.310951,-164.75756063685964,0.9564322651323938,-7.244231595769641,0.06992125370633798,-1.4712686794170278,10.201452166751368,-0.001090830782496456,0.004363323129985824,0.04799655442984406,-4.6875,-14.375,-40.1875
1773079136.3274038,165.61109412522708,1.0194731867882512,7.409769471788329,0.07998293034317981,-1.2701375895407914,10.063816820751175,-0.016362461737446838,0.006544984694978736,0.008726646259971648,-4.6875,-13.6875,-41.375
1773079136.6252046,0.0,0.0,0.0,-0.05716093966602802,-1.3202682399122114,9.972222035475601,-0.018544123302439753,0.0,-0.00545415391248228,-4.6875,-13.6875,-41.375
1773079136.6702747,0.0,0.0,0.0,-0.05716093966602802,-1.3202682399122114,9.972222035475601,-0.018544123302439753,0.0,-0.00545415391248228,-4.6875,-13.6875,-41.375
1773079136.7063265,-164.59531967274813,0.9698469444252519,-7.2140950246740365,-0.18856999364757954,-1.3536296277383344,9.911266729055502,0.019634954084936207,-0.003272492347489368,0.037088246604879506,-2.5,-3.0625,-51.25
1773079136.7254262,-164.65039738548646,0.9464767455442484,-7.22429291747804,-0.2358799106491532,-1.1450185508604613,9.89746254720687,-0.009817477042468103,-0.011999138607461015,-0.04363323129985824,-2.5,-3.0625,-51.25
1773079136.747589,-164.59415345306846,0.9339783778525328,-7.2615351619687845,-0.18039122753699563,-1.006190209536656,9.774542220340559,-0.030543261909900768,-0.004363323129985824,0.039269908169872414,-2.5,-3.0625,-51.25
1773079136.8423223,-164.6571072214865,0.9409853823340502,-7.239169226089952,-0.14346412877505943,-1.2282419996878717,9.692740115921051,-0.002181661564992912,0.004363323129985824,0.020725784867432664,-2.0625,-11.0625,-49.75
1773079136.8832843,-164.6239881801793,0.9441494687229308,-7.246154735374963,-0.011845982417492129,-1.3760149855524817,9.638301729219249,-0.007635815477475192,-0.002181661564992912,0.02181661564992912,-2.0625,-11.0625,-49.75
1773079136.9194958,-164.6239881801793,0.9441494687229308,-7.246154735374963,-0.011845982417492129,-1.3760149855524817,9.638301729219249,-0.007635815477475192,-0.002181661564992912,0.02181661564992912,-2.0625,-11.0625,-49.75
1773079136.9503567,-164.58187281639186,0.9546834935058124,-7.251766786979675,-0.13834272555600285,-1.474356256912967,9.612108926107783,-0.008726646259971648,-0.008726646259971648,0.026179938779914945,-3.5625,-11.5,-49.75
1773079137.0149064,-164.6085073954738,0.9579393859257925,-7.236879536962014,-0.08537531505337834,-1.268847226166519,9.711756817986064,-0.002181661564992912,0.001090830782496456,0.008726646259971648,-2.5,-11.75,-49.25
1773079137.0543048,-164.6085073954738,0.9579393859257925,-7.236879536962014,-0.11033810578037481,-1.3963470867692824,9.667682690549631,-0.004363323129985824,0.003272492347489368,-0.003272492347489368,-2.5,-11.75,-49.25
1773079137.1011932,-164.631282500883,0.9566021897666287,-7.237317482595307,-0.12695056415654732,-1.4209848090019077,9.695218750105377,0.006544984694978736,0.006544984694978736,-0.013089969389957472,-2.875,-10.6875,-50.0625
1773079137.1437542,-164.61794323602973,0.9574927999219164,-7.237320023863424,-0.14201810677257393,-1.3512841390565085,9.759189850106218,-0.008726646259971648,0.0,0.011999138607461015,-2.875,-10.6875,-50.0625
1773079137.1617637,-164.61794323602973,0.9574927999219164,-7.237320023863424,-0.14201810677257393,-1.3512841390565085,9.759189850106218,-0.008726646259971648,0.0,0.011999138607461015,-2.875,-10.6875,-50.0625
1773079137.1933138,-164.6018377496997,0.9583846911482222,-7.236880807598543,-0.14468813922073756,-1.2939876811729036,9.78956685966153,-0.004363323129985824,-0.004363323129985824,0.011999138607461015,-2.875,-11.5,-51.0
1773079137.2414002,-164.6246126549611,0.9570474948153649,-7.237318753229369,-0.1464650159887737,-1.2893086455679306,9.779676414821285,0.00545415391248228,0.003272492347489368,-0.013089969389957472,-2.875,-11.5,-51.0
1773079137.2588692,-164.61794323602973,0.9574927999219164,-7.237320023863424,-0.1476475076288877,-1.2861947996410734,9.77309443426361,-0.001090830782496456,0.002181661564992912,0.006544984694978736,-2.875,-11.0625,-50.5
1773079137.295316,-164.61794323602973,0.9574927999219164,-7.237320023863424,-0.14843444260608643,-1.2841225699606882,9.768714199728018,-0.003272492347489368,-0.001090830782496456,0.006544984694978736,-2.875,-11.0625,-50.5
1773079137.3220274,-164.61794323602973,0.9574927999219164,-7.237320023863424,-0.14843444260608643,-1.2841225699606882,9.768714199728018,-0.003272492347489368,-0.001090830782496456,0.006544984694978736,-2.875,-11.0625,-50.5
1773079137.3437405,-164.61794323602973,0.9574927999219164,-7.237320023863424,-0.14843444260608643,-1.2841225699606882,9.768714199728018,-0.003272492347489368,-0.001090830782496456,0.006544984694978736,-2.875,-11.0625,-50.5
1773079137.367226,-164.6246126549611,0.9570474948153649,-7.237318753229369,-0.16233858587205002,-1.3195397530372273,9.75576386745305,0.00545415391248228,0.002181661564992912,-0.01090830782496456,-3.875,-10.6875,-49.75
1773079137.408223,-164.6246126549611,0.9570474948153649,-7.237318753229369,-0.16233858587205002,-1.3195397530372273,9.75576386745305,0.00545415391248228,0.002181661564992912,-0.01090830782496456,-3.875,-10.6875,-49.75
1773079137.42999,-164.6246126549611,0.9570474948153649,-7.237318753229369,-0.17159163789609155,-1.3431094927388059,9.747145565988747,-0.006544984694978736,-0.001090830782496456,0.007635815477475192,-2.875,-11.5,-50.0625
1773079137.4489079,-164.6246126549611,0.9570474948153649,-7.237318753229369,-0.17774944065472742,-1.37217533804824,9.724684624100393,0.0,0.001090830782496456,0.0,-2.875,-11.5,-50.0625
1773079137.468609,-164.6246126549611,0.9570474948153649,-7.237318753229369,-0.17774944065472742,-1.37217533804824,9.724684624100393,0.0,0.001090830782496456,0.0,-2.875,-11.5,-50.0625
1773079137.5064857,-164.6246126549611,0.9570474948153649,-7.237318753229369,-0.16512183106683873,-1.324616099268514,9.743188235252047,0.00545415391248228,0.002181661564992912,-0.007635815477475192,-2.875,-11.5,-49.75
1773079137.5271719,-164.6239489592196,0.9491921172825887,-7.231274407993423,-0.15671829794574052,-1.2929659571321142,9.755502181774593,-0.001090830782496456,0.002181661564992912,0.002181661564992912,-2.875,-11.5,-49.75
1773079137.543526,-164.6237148115171,0.9482545452907413,-7.22429969437206,-0.1477807288199461,-1.268558029388274,9.763696975629552,-0.00545415391248228,0.001090830782496456,0.007635815477475192,-2.875,-11.5,-49.75
1773079137.5645728,-164.6237148115171,0.9482545452907413,-7.22429969437206,-0.1477807288199461,-1.268558029388274,9.763696975629552,-0.00545415391248228,0.001090830782496456,0.007635815477475192,-2.875,-11.5,-49.75
1773079137.5907314,-164.6239489592196,0.9491921172825887,-7.231274407993423,-0.14183287640591882,-1.2523148261291666,9.769150519398181,-0.003272492347489368,0.003272492347489368,0.001090830782496456,-2.5,-10.25,-48.5
1773079137.6158223,-164.62418332629903,0.950129689528626,-7.238249231995613,-0.141219758773568,-1.2481953792233387,9.772779791856129,0.004363323129985824,0.004363323129985824,-0.006544984694978736,-2.5,-10.25,-48.5
1773079137.634717,-164.62418332629903,0.950129689528626,-7.238249231995613,-0.141219758773568,-1.2481953792233387,9.772779791856129,0.004363323129985824,0.004363323129985824,-0.006544984694978736,-2.5,-10.25,-48.5
1773079137.6518214,-164.6239489592196,0.9491921172825887,-7.231274407993423,-0.14081173583821122,-1.2454539333247474,9.778540143842584,0.001090830782496456,0.001090830782496456,-0.001090830782496456,-2.875,-11.5,-49.25
1773079137.6654937,-164.6239489592196,0.9491921172825887,-7.231274407993423,-0.14081173583821122,-1.2454539333247474,9.778540143842584,0.001090830782496456,0.001090830782496456,-0.001090830782496456,-2.875,-11.5,-49.25
1773079137.683526,-164.6239489592196,0.9491921172825887,-7.231274407993423,-0.14054020113264612,-1.2269039731665954,9.782373593742221,-0.003272492347489368,-0.001090830782496456,0.004363323129985824,-2.875,-11.5,-49.25
1773079137.7048252,-164.6239489592196,0.9491921172825887,-7.231274407993423,-0.14054020113264612,-1.2269039731665954,9.782373593742221,-0.003272492347489368,-0.001090830782496456,0.004363323129985824,-2.875,-11.5,-49.25
1773079137.7215552,-164.6239489592196,0.9491921172825887,-7.231274407993423,-0.14370460952665332,-1.2145591818979775,9.784924711827989,-0.002181661564992912,0.002181661564992912,0.0,-2.875,-10.6875,-49.25
1773079137.734231,-164.6239489592196,0.9491921172825887,-7.231274407993423,-0.14370460952665332,-1.2145591818979775,9.784924711827989,-0.002181661564992912,0.002181661564992912,0.0,-2.875,-10.6875,-49.25
1773079137.7534196,-164.62418332629903,0.950129689528626,-7.238249231995613,-0.14915559967142658,-1.2431400899895797,9.773242005586933,0.003272492347489368,0.003272492347489368,-0.006544984694978736,-2.875,-10.6875,-49.25
1773079137.774428,-164.62418332629903,0.950129689528626,-7.238249231995613,-0.14915559967142658,-1.2431400899895797,9.773242005586933,0.003272492347489368,0.003272492347489368,-0.006544984694978736,-2.875,-10.6875,-49.25
1773079137.7938037,-164.62418332629903,0.950129689528626,-7.238249231995613,-0.1527831727212235,-1.262160365054878,9.76546729508789,-0.001090830782496456,0.004363323129985824,-0.001090830782496456,-3.1875,-11.0625,-49.75
1773079137.813216,-164.6239489592196,0.9491921172825887,-7.231274407993423,-0.1551972820632172,-1.2614376988111624,9.760293312099984,-0.004363323129985824,-0.001090830782496456,0.006544984694978736,-3.1875,-11.0625,-49.75
1773079137.831697,-164.62418332629903,0.950129689528626,-7.238249231995613,-0.15680384486294568,-1.2609567724986805,9.756850084218708,-0.003272492347489368,0.001090830782496456,0.001090830782496456,-3.1875,-11.0625,-49.75
1773079137.8477325,-164.62418332629903,0.950129689528626,-7.238249231995613,-0.15680384486294568,-1.2609567724986805,9.756850084218708,-0.003272492347489368,0.001090830782496456,0.001090830782496456,-3.1875,-11.0625,-49.75
1773079137.8630455,-164.62418332629903,0.950129689528626,-7.238249231995613,-0.15787299445968261,-1.287397615068578,9.754558654527097,0.001090830782496456,0.003272492347489368,-0.002181661564992912,-2.875,-10.6875,-50.5625
1773079137.8838348,-164.62418332629903,0.950129689528626,-7.238249231995613,-0.1585845015731275,-1.30499370043528,9.756378845371595,0.002181661564992912,0.00545415391248228,-0.00545415391248228,-2.875,-10.6875,-50.5625
1773079137.9071648,-164.62418332629903,0.950129689528626,-7.238249231995613,-0.1523677781944311,-1.2732172464905154,9.774315720582342,0.001090830782496456,0.002181661564992912,0.0,-2.875,-10.6875,-50.5625
1773079137.9288568,-164.62418332629903,0.950129689528626,-7.238249231995613,-0.14488550652393964,-1.2520703713565235,9.789597622374387,-0.002181661564992912,0.0,0.003272492347489368,-3.1875,-10.6875,-50.0625
1773079137.9526439,-164.62418332629903,0.950129689528626,-7.238249231995613,-0.14325125001699807,-1.2379973621809255,9.796422445599646,-0.002181661564992912,0.001090830782496456,0.002181661564992912,-3.1875,-10.6875,-50.0625
1773079137.9967272,-164.62418332629903,0.950129689528626,-7.238249231995613,-0.14325125001699807,-1.2379973621809255,9.796422445599646,-0.002181661564992912,0.001090830782496456,0.002181661564992912,-3.1875,-10.6875,-50.0625
1773079138.0102134,-164.6237539994063,0.9432118980939113,-7.239179814621268,-0.14885389398210858,-1.255392825438933,9.787583842388507,0.002181661564992912,0.003272492347489368,-0.003272492347489368,-3.5625,-10.6875,-50.0625
1773079138.022798,-164.6237539994063,0.9432118980939113,-7.239179814621268,-0.14885389398210858,-1.255392825438933,9.787583842388507,0.002181661564992912,0.003272492347489368,-0.003272492347489368,-3.5625,-10.6875,-50.0625
1773079138.0419962,-164.6237539994063,0.9432118980939113,-7.239179814621268,-0.15258239095525575,-1.2669693119170802,9.781701850685161,0.001090830782496456,0.001090830782496456,-0.002181661564992912,-3.5625,-10.6875,-50.0625
1773079138.0582893,-164.6237539994063,0.9432118980939113,-7.239179814621268,-0.1483734406262062,-1.241222217277266,9.794513009449334,0.0,0.0,0.004363323129985824,-3.5625,-12.1875,-49.375
1773079138.101779,-164.6237539994063,0.9432118980939113,-7.239179814621268,-0.1483734406262062,-1.241222217277266,9.794513009449334,0.0,0.0,0.004363323129985824,-3.5625,-12.1875,-49.375
1773079138.1230123,-164.6237539994063,0.9432118980939113,-7.239179814621268,-0.1455724311992796,-1.224087813408362,9.803038692496871,0.001090830782496456,0.001090830782496456,-0.002181661564992912,-3.5625,-12.1875,-49.375
1773079138.137359,-164.6237539994063,0.9432118980939113,-7.239179814621268,-0.1437083907149854,-1.2260655058667165,9.79198688079029,0.002181661564992912,0.0,-0.002181661564992912,-3.5625,-12.1875,-49.375
1773079138.1491811,-164.6237539994063,0.9432118980939113,-7.239179814621268,-0.1437083907149854,-1.2260655058667165,9.79198688079029,0.002181661564992912,0.0,-0.002181661564992912,-3.5625,-12.1875,-49.375
1773079138.1682074,-164.6237539994063,0.9432118980939113,-7.239179814621268,-0.14581300430270355,-1.2273816381054792,9.784632023556387,0.0,-0.001090830782496456,-0.002181661564992912,-3.1875,-11.5,-49.0
1773079138.189979,-164.6237539994063,0.9432118980939113,-7.239179814621268,-0.14581300430270355,-1.2273816381054792,9.784632023556387,0.0,-0.001090830782496456,-0.002181661564992912,-3.1875,-11.5,-49.0
1773079138.2113717,-164.6237539994063,0.9432118980939113,-7.239179814621268,-0.1481456826816275,-1.217697899613674,9.793193901563804,-0.002181661564992912,-0.002181661564992912,0.003272492347489368,-3.1875,-11.5,-49.0
1773079138.2320533,-164.6237539994063,0.9432118980939113,-7.239179814621268,-0.1481456826816275,-1.217697899613674,9.793193901563804,-0.002181661564992912,-0.002181661564992912,0.003272492347489368,-3.1875,-11.5,-49.0
1773079138.2487245,-164.6237539994063,0.9432118980939113,-7.239179814621268,-0.1487659725387048,-1.2351935364456432,9.782090170690536,0.0,-0.003272492347489368,0.001090830782496456,-2.875,-10.6875,-50.5625
1773079138.2726612,-164.6237539994063,0.9432118980939113,-7.239179814621268,-0.1487659725387048,-1.2351935364456432,9.782090170690536,0.0,-0.003272492347489368,0.001090830782496456,-2.875,-10.6875,-50.5625
1773079138.2957911,-164.6237539994063,0.9432118980939113,-7.239179814621268,-0.14945347961682776,-1.2445497390394937,9.773128304487697,-0.001090830782496456,-0.002181661564992912,0.0,-2.5,-11.5,-49.75
1773079138.3438826,-164.6237539994063,0.9432118980939113,-7.239179814621268,-0.14963629679003157,-1.2430278005068678,9.77208185169111,-0.001090830782496456,-0.001090830782496456,0.001090830782496456,-2.5,-11.5,-49.75
1773079138.3689275,-164.6237539994063,0.9432118980939113,-7.239179814621268,-0.14975795957659707,-1.2520503025365308,9.771385449044626,-0.001090830782496456,0.0,0.0,-2.5,-11.5,-49.75
1773079138.3930295,-164.6237539994063,0.9432118980939113,-7.239179814621268,-0.14975795957659707,-1.2520503025365308,9.771385449044626,-0.001090830782496456,0.0,0.0,-2.5,-11.5,-49.75
1773079138.4078217,-164.6237539994063,0.9432118980939113,-7.239179814621268,-0.14983892480199404,-1.25805467684932,9.770922000862718,0.002181661564992912,0.0,-0.002181661564992912,-3.1875,-11.0625,-48.5625
1773079138.4228816,-164.6237539994063,0.9432118980939113,-7.239179814621268,-0.14983892480199404,-1.25805467684932,9.770922000862718,0.002181661564992912,0.0,-0.002181661564992912,-3.1875,-11.0625,-48.5625
1773079138.4437644,-164.6237539994063,0.9432118980939113,-7.239179814621268,-0.1465476945477355,-1.2587054091739058,9.770613581274715,0.001090830782496456,-0.001090830782496456,0.0,-3.1875,-11.0625,-48.5625
1773079138.4588704,-164.6237539994063,0.9432118980939113,-7.239179814621268,-0.14435741757897738,-1.255793352559442,9.77709855489881,-0.002181661564992912,-0.001090830782496456,-0.001090830782496456,-2.5,-10.6875,-49.0
1773079138.4919395,-164.6237539994063,0.9432118980939113,-7.239179814621268,-0.14435741757897738,-1.255793352559442,9.77709855489881,-0.002181661564992912,-0.001090830782496456,-0.001090830782496456,-2.5,-10.6875,-49.0
1773079138.526107,-164.6237539994063,0.9432118980939113,-7.239179814621268,-0.14624492443058512,-1.2538554114123202,9.781414232403744,0.0,-0.002181661564992912,-0.002181661564992912,-2.5,-10.6875,-49.0
1773079138.5422552,-164.6237539994063,0.9432118980939113,-7.239179814621268,-0.14624492443058512,-1.2538554114123202,9.781414232403744,0.0,-0.002181661564992912,-0.002181661564992912,-2.5,-10.6875,-49.0
1773079138.5573974,-164.6237539994063,0.9432118980939113,-7.239179814621268,-0.147501039155497,-1.2525657332271316,9.784286267574,0.001090830782496456,0.0,0.0,-2.5,-11.0625,-50.5625
1773079138.5712588,-164.6237539994063,0.9432118980939113,-7.239179814621268,-0.147501039155497,-1.2525657332271316,9.784286267574,0.001090830782496456,0.0,0.0,-2.5,-11.0625,-50.5625
1773079138.594415,-164.6237539994063,0.9432118980939113,-7.239179814621268,-0.14833696947320496,-1.2483623550942187,9.776162239775113,-0.001090830782496456,-0.001090830782496456,0.0,-2.5,-11.0625,-50.5625
1773079138.6082647,-164.6237539994063,0.9432118980939113,-7.239179814621268,-0.14833696947320496,-1.2483623550942187,9.776162239775113,-0.001090830782496456,-0.001090830782496456,0.0,-2.5,-11.0625,-50.5625
1773079138.628083,-164.6237539994063,0.9432118980939113,-7.239179814621268,-0.14889327176168612,-1.2455650539015755,9.77075579002629,-0.001090830782496456,-0.002181661564992912,0.001090830782496456,-2.5,-11.0625,-50.5625
1773079138.6443436,-164.6237539994063,0.9432118980939113,-7.239179814621268,-0.14889327176168612,-1.2455650539015755,9.77075579002629,-0.001090830782496456,-0.002181661564992912,0.001090830782496456,-2.5,-11.0625,-50.5625
1773079138.6650238,-164.6237539994063,0.9432118980939113,-7.239179814621268,-0.1492634847203666,-1.2503937046204119,9.767157858112448,0.001090830782496456,0.0,-0.001090830782496456,-2.0625,-10.6875,-49.375
1773079138.6986122,-164.6237539994063,0.9432118980939113,-7.239179814621268,-0.14950985730881872,-1.2536071177342347,9.774798809737279,0.001090830782496456,0.001090830782496456,-0.002181661564992912,-2.0625,-10.6875,-49.375
1773079138.7191334,-164.6237539994063,0.9432118980939113,-7.239179814621268,-0.14950985730881872,-1.2536071177342347,9.774798809737279,0.001090830782496456,0.001090830782496456,-0.002181661564992912,-2.0625,-10.6875,-49.375
1773079138.7371595,-164.6237539994063,0.9432118980939113,-7.239179814621268,-0.1463287038069521,-1.2490553848506685,9.77988377768858,0.0,0.0,0.001090830782496456,-3.1875,-11.0625,-51.0
1773079138.759666,-164.6237539994063,0.9432118980939113,-7.239179814621268,-0.14421168168727289,-1.2460262574628431,9.776577543642718,-0.001090830782496456,0.002181661564992912,-0.001090830782496456,-3.1875,-11.0625,-51.0
1773079138.8268843,-164.6237539994063,0.9432118980939113,-7.239179814621268,-0.14280282711531297,-1.2440104070238154,9.774377281818252,0.001090830782496456,0.001090830782496456,-0.001090830782496456,-3.875,-11.5,-50.0625
1773079138.8462555,-164.6237539994063,0.9432118980939113,-7.239179814621268,-0.1418652501356104,-1.2426688810751674,9.776258143859923,-0.001090830782496456,0.002181661564992912,0.001090830782496456,-3.875,-11.5,-50.0625
1773079138.891879,-164.6237539994063,0.9432118980939113,-7.239179814621268,-0.1418652501356104,-1.2426688810751674,9.776258143859923,-0.001090830782496456,0.002181661564992912,0.001090830782496456,-3.875,-11.5,-50.0625
1773079138.9302635,0.0006816460254094207,0.9431695802213736,-7.238855872496204,0.46274615133044744,1.1600037302739497,9.774997712325701,0.0013410257071290814,0.0007625441920981415,0.0,-2.5,-11.0625,-50.0625
1773079139.2537217,0.0006816460254094207,0.9431695802213736,-7.238855872496204,0.4633236313274228,1.1591619660430221,9.778903587169413,0.00028924075751547,0.0010517849496136115,-0.001090830782496456,5.907263735345595,9.459759387060053,-50.0625
1773079139.4101717,0.0006816460254094207,0.9431695802213736,-7.238855872496204,0.46364739073506656,1.1586900378546725,9.775587077203767,-0.0007625441920981415,0.0013410257071290814,-0.001090830782496456,4.822532641117276,9.758060331098513,-49.75
1773079139.4290538,0.0006816460254094207,0.9431695802213736,-7.238855872496204,0.46364739073506656,1.1586900378546725,9.775587077203767,-0.0007625441920981415,0.0013410257071290814,-0.001090830782496456,4.822532641117276,9.758060331098513,-49.75
1773079139.450391,0.0006816460254094207,0.9431695802213736,-7.238855872496204,0.46369264912198466,1.15862406692675,9.780408360882005,0.0004733034345826715,-0.002392810656742693,-0.003272492347489368,4.822532641117276,9.758060331098513,-49.75
1773079139.475656,0.0006816460254094207,0.9431695802213736,-7.238855872496204,0.4637227680729094,1.1585801640111615,9.783616871312605,0.003444595606356305,0.00018406267706720146,0.001090830782496456,5.821389113198838,10.326037661791188,-50.5625
1773079139.5622942,0.0006816460254094207,0.9431695802213736,-7.238855872496204,0.4646297896584834,1.1617763219402393,9.785752099162758,-0.0010517849496136115,0.00028924075751547,-0.003272492347489368,5.821389113198838,10.326037661791188,-50.5625
1773079139.6854174,0.0006816460254094207,0.9431695802213736,-7.238855872496204,0.46504482613146103,1.1631723780831233,9.784773597587195,0.0013410257071290814,0.0007625441920981415,0.001090830782496456,5.037972211811719,10.541477232485631,-49.25
1773079139.720172,0.0006816460254094207,0.9431695802213736,-7.238855872496204,0.46504482613146103,1.1631723780831233,9.784773597587195,0.0013410257071290814,0.0007625441920981415,0.001090830782496456,5.037972211811719,10.541477232485631,-49.25
1773079139.7430983,0.0006816460254094207,0.9431695802213736,-7.238855872496204,0.46462262676790894,1.1616070142777628,9.77983166416238,0.00028924075751547,0.0010517849496136115,0.001090830782496456,5.104261310486932,10.78252858675859,-50.5625
1773079139.7694206,0.0006816460254094207,0.9431695802213736,-7.238855872496204,0.4652286355679254,1.1637906569805299,9.779887974380499,0.00086772227254641,0.003155354848840835,0.002181661564992912,5.104261310486932,10.78252858675859,-50.5625
1773079139.7935505,0.0006816460254094207,0.9431695802213736,-7.238855872496204,0.46474494989459003,1.1620184719773592,9.78327055990895,0.0013410257071290814,0.0007625441920981415,0.002181661564992912,5.887678211874051,10.567089016064148,-50.0625
1773079139.8472872,0.0006816460254094207,0.9431695802213736,-7.238855872496204,0.46442306248210835,1.1608391026543528,9.785521632792177,0.0019195072221600217,0.0028661140913253647,0.001090830782496456,5.887678211874051,10.567089016064148,-50.0625
1773079139.865965,0.0006816460254094207,0.9431695802213736,-7.238855872496204,0.4600964974156607,1.1577158484755201,9.780329473235195,0.00028924075751547,0.0010517849496136115,0.0,4.67639518040228,10.640910880498451,-50.0625
1773079139.9553437,0.0006816460254094207,0.9431695802213736,-7.238855872496204,0.45721721669483834,1.1556373577085424,9.776874149050245,0.00057848151503094,0.002103569899227223,0.001090830782496456,4.67639518040228,10.640910880498451,-50.0625
1773079139.978244,0.0006816460254094207,0.9431695802213736,-7.238855872496204,0.45721721669483834,1.1556373577085424,9.776874149050245,0.00057848151503094,0.002103569899227223,0.001090830782496456,4.67639518040228,10.640910880498451,-50.0625
1773079140.0106266,0.0006816460254094207,0.9431695802213736,-7.238855872496204,0.4594134401279633,1.1565925423901722,9.774574669403663,-0.00028924075751547,-0.0010517849496136115,-0.001090830782496456,5.526101180464612,10.666522664076968,-49.75
1773079140.0392387,0.0006816460254094207,0.9431695802213736,-7.238855872496204,0.46410037711825936,1.1563412293655002,9.773044391385731,0.0010517849496136115,-0.00028924075751547,0.001090830782496456,5.526101180464612,10.666522664076968,-49.75
1773079140.063628,0.0006816460254094207,0.9431695802213736,-7.238855872496204,0.46399410649981004,1.157060961115116,9.772026008459124,0.0010517849496136115,-0.00028924075751547,-0.002181661564992912,4.560389257720657,10.219071010520771,-49.375
1773079140.1445272,0.0006816460254094207,0.9431695802213736,-7.238855872496204,0.46714875941932726,1.1566529567943704,9.77469339770487,0.0007625441920981415,-0.0013410257071290814,-0.001090830782496456,4.560389257720657,10.219071010520771,-49.375
1773079140.1619418,0.0006816460254094207,0.9431695802213736,-7.238855872496204,0.4660227708685092,1.1572684122368055,9.779813627158541,0.0004733034345826715,-0.002392810656742693,-0.002181661564992912,6.006697383358414,9.821336418469492,-51.0
1773079140.186714,0.0006816460254094207,0.9431695802213736,-7.238855872496204,0.4660227708685092,1.1572684122368055,9.779813627158541,0.0004733034345826715,-0.002392810656742693,-0.002181661564992912,6.006697383358414,9.821336418469492,-51.0
1773079140.2169588,0.0006816460254094207,0.9431695802213736,-7.238855872496204,0.465273438066056,1.1576779909586585,9.78322108266325,0.0010517849496136115,-0.00028924075751547,-0.001090830782496456,6.006697383358414,9.821336418469492,-51.0
1773079140.2537155,0.0006816460254094207,0.9431695802213736,-7.238855872496204,0.4647747654566192,1.1579505610227572,9.785488706237862,-0.00028924075751547,-0.0010517849496136115,0.0,6.785594530290676,10.060881267090336,-49.75
1773079140.3105886,0.0006816460254094207,0.9431695802213736,-7.238855872496204,0.46766827923455184,1.1572449755954237,9.79034289610307,0.0010517849496136115,-0.00028924075751547,-0.001090830782496456,6.785594530290676,10.060881267090336,-49.75
1773079140.3480194,0.0006816460254094207,0.9431695802213736,-7.238855872496204,0.4695938803310992,1.1567754163754387,9.793573305233512,0.0,0.0,-0.001090830782496456,5.821389113198838,10.326037661791188,-49.0
1773079140.3642588,0.0006816460254094207,0.9431695802213736,-7.238855872496204,0.4717623241106622,1.1596883047888336,9.785687771301829,-0.0010517849496136115,0.00028924075751547,0.0,5.821389113198838,10.326037661791188,-49.0
1773079140.4021106,0.0006816460254094207,0.9431695802213736,-7.238855872496204,0.4717623241106622,1.1596883047888336,9.785687771301829,-0.0010517849496136115,0.00028924075751547,0.0,5.821389113198838,10.326037661791188,-49.0
1773079140.4248483,0.0006816460254094207,0.9431695802213736,-7.238855872496204,0.4723184214626728,1.1584014246598775,9.78044003655748,-0.0013410257071290814,-0.0007625441920981415,0.0,5.459812081789399,10.425471309804008,-50.5625
1773079140.451592,0.0006816460254094207,0.9431695802213736,-7.238855872496204,0.4726884980384214,1.1575450203094502,9.780292839413471,0.00028924075751547,0.0010517849496136115,-0.002181661564992912,5.459812081789399,10.425471309804008,-50.5625
1773079140.4817457,0.0006816460254094207,0.9431695802213736,-7.238855872496204,0.4726884980384214,1.1575450203094502,9.780292839413471,0.00028924075751547,0.0010517849496136115,-0.002181661564992912,5.459812081789399,10.425471309804008,-50.5625
1773079140.5231867,0.0006816460254094207,0.9431695802213736,-7.238855872496204,0.4729347798655558,1.1569750927809044,9.780194881358435,0.0010517849496136115,-0.00028924075751547,-0.002181661564992912,5.887678211874051,10.567089016064148,-49.375
1773079140.549424,0.0006816460254094207,0.9431695802213736,-7.238855872496204,0.47309867767036556,1.1565958123771647,9.776784579659752,0.0010517849496136115,-0.00028924075751547,0.001090830782496456,5.887678211874051,10.567089016064148,-49.375
1773079140.565362,0.0006816460254094207,0.9431695802213736,-7.238855872496204,0.47320774982860797,1.1563434055053157,9.774515061974844,0.0013410257071290814,0.0007625441920981415,-0.001090830782496456,6.1889924047152505,10.484227642720132,-50.0625
1773079140.5868483,0.0006816460254094207,0.9431695802213736,-7.238855872496204,0.47416731389168687,1.1594008063806442,9.779694946722351,-0.00028924075751547,-0.0010517849496136115,0.0,6.1889924047152505,10.484227642720132,-50.0625
1773079140.6314063,0.0006816460254094207,0.9431695802213736,-7.238855872496204,0.4715805182276583,1.1623224502699543,9.783142102158713,0.0,0.0,0.001090830782496456,6.3049983273968735,10.90606751269781,-49.375
1773079140.651456,0.0006816460254094207,0.9431695802213736,-7.238855872496204,0.4715805182276583,1.1623224502699543,9.783142102158713,0.0,0.0,0.001090830782496456,6.3049983273968735,10.90606751269781,-49.375
1773079140.677365,0.0006816460254094207,0.9431695802213736,-7.238855872496204,0.4689720568494638,1.1610413968124147,9.785436145594362,-0.0016302664646445516,-0.001814329141711753,-0.002181661564992912,6.3049983273968735,10.90606751269781,-49.375
1773079140.7040782,0.056626191187394766,0.0578064680972096,-7.358354229670217,0.46723615494069815,1.1601888700467269,9.786962805874643,0.0013410257071290814,0.0007625441920981415,0.001090830782496456,5.423654521147559,8.87972953615343,-51.0
1773079140.7289953,0.0006816460254094207,0.9431695802213736,-7.238855872496204,0.4669679093718939,1.1628468978364843,9.787978781237257,-0.0007625441920981415,0.0013410257071290814,0.001090830782496456,5.423654521147559,8.87972953615343,-51.0
1773079140.752226,0.0006816460254094207,0.9431695802213736,-7.238855872496204,0.4669679093718939,1.1628468978364843,9.787978781237257,-0.0007625441920981415,0.0013410257071290814,0.001090830782496456,5.423654521147559,8.87972953615343,-51.0
1773079140.8106115,0.0006816460254094207,0.9431695802213736,-7.238855872496204,0.4667893949423541,1.1646157856384518,9.781964678077248,-0.00028924075751547,-0.0010517849496136115,0.0,4.822532641117276,9.758060331098513,-50.0625
1773079140.904786,0.0006816460254094207,0.9431695802213736,-7.238855872496204,0.46989597041260683,1.1649059829507056,9.777962359606198,0.002392810656742693,0.0004733034345826715,0.0,4.822532641117276,9.758060331098513,-50.0625
1773079140.9848883,0.0006816460254094207,0.9431695802213736,-7.238855872496204,0.4724522097228828,1.1620022524368043,9.780216556465904,0.0018143291417117532,-0.0016302664646445516,0.0,5.459812081789399,10.425471309804008,-50.0625
1773079141.0058231,0.0006816460254094207,0.9431695802213736,-7.238855872496204,0.4724522097228828,1.1620022524368043,9.780216556465904,0.0018143291417117532,-0.0016302664646445516,0.0,5.459812081789399,10.425471309804008,-50.0625
1773079141.035133,0.0006816460254094207,0.9431695802213736,-7.238855872496204,0.47277753263107836,1.1599413309711133,9.786834339323605,-0.0010517849496136115,0.00028924075751547,0.0,5.705383190517215,9.904197791813509,-50.5625
1773079141.0674763,0.0006816460254094207,0.9431695802213736,-7.238855872496204,0.47299403139238755,1.1585698107576972,9.791238399889926,0.00028924075751547,0.0010517849496136115,-0.001090830782496456,5.705383190517215,9.904197791813509,-50.5625
1773079141.1365855,0.0006816460254094207,0.9431695802213736,-7.238855872496204,0.4731381088995891,1.1576570793765533,9.790824141292912,0.00028924075751547,0.0010517849496136115,0.0,6.006697383358414,9.821336418469492,-49.375
1773079141.1730652,0.0006816460254094207,0.9431695802213736,-7.238855872496204,0.47412096863136494,1.160275041667254,9.790548456824173,0.0,0.0,-0.001090830782496456,6.006697383358414,9.821336418469492,-49.375
1773079141.2719717,0.0006816460254094207,0.9431695802213736,-7.238855872496204,0.47412096863136494,1.160275041667254,9.790548456824173,0.0,0.0,-0.001090830782496456,6.006697383358414,9.821336418469492,-49.375
1773079141.3434453,0.0006816460254094207,0.9431695802213736,-7.238855872496204,0.47154967597462455,1.1629042440873452,9.790364991889822,0.00086772227254641,0.003155354848840835,0.001090830782496456,5.821389113198838,10.326037661791188,-51.0
1773079141.360892,0.0006816460254094207,0.9431695802213736,-7.238855872496204,0.47154967597462455,1.1629042440873452,9.790364991889822,0.00086772227254641,0.003155354848840835,0.001090830782496456,5.821389113198838,10.326037661791188,-51.0
1773079141.3838258,0.0006816460254094207,0.9431695802213736,-7.238855872496204,0.4698385094347848,1.1646539489278003,9.78689778631813,0.0010517849496136115,-0.00028924075751547,0.0,5.821389113198838,10.326037661791188,-51.0
1773079141.4397402,0.0006816460254094207,0.9431695802213736,-7.238855872496204,0.47515049687545347,1.1640444024332706,9.784590399741393,-0.0007625441920981415,0.0013410257071290814,0.001090830782496456,6.3049983273968735,10.90606751269781,-50.0625
1773079141.4900205,0.0006816460254094207,0.9431695802213736,-7.238855872496204,0.47868556517843075,1.1636387560502415,9.783054859749772,0.00028924075751547,0.0010517849496136115,0.001090830782496456,6.3049983273968735,10.90606751269781,-50.0625
1773079141.527922,0.0006816460254094207,0.9431695802213736,-7.238855872496204,0.4769257610556027,1.1610304058449126,9.778687863331134,0.0013410257071290814,0.0007625441920981415,0.0,5.907263735345595,9.459759387060053,-49.0
1773079141.5549386,0.0006816460254094207,0.9431695802213736,-7.238855872496204,0.472529256241186,1.1601815556806314,9.775781675997077,0.00057848151503094,0.002103569899227223,0.001090830782496456,5.907263735345595,9.459759387060053,-49.0
1773079141.5849128,0.0006816460254094207,0.9431695802213736,-7.238855872496204,0.4728288062283431,1.1587296776183955,9.773847640790502,-0.0013410257071290814,-0.0007625441920981415,-0.002181661564992912,5.821389113198838,10.326037661791188,-49.375
1773079141.6058524,0.0006816460254094207,0.9431695802213736,-7.238855872496204,0.4728288062283431,1.1587296776183955,9.773847640790502,-0.0013410257071290814,-0.0007625441920981415,-0.002181661564992912,5.821389113198838,10.326037661791188,-49.375
1773079141.6269777,0.0006816460254094207,0.9431695802213736,-7.238855872496204,0.46980277856962893,1.1586504467467025,9.779250785379753,-0.0010517849496136115,0.00028924075751547,0.001090830782496456,5.821389113198838,10.326037661791188,-49.375
1773079141.6586967,0.0006816460254094207,0.9431695802213736,-7.238855872496204,0.47101436579467304,1.1577107417264734,9.786191629454141,-0.0004733034345826715,0.002392810656742693,0.0,5.705383190517215,9.904197791813509,-50.0625
1773079141.6903572,0.0006816460254094207,0.9431695802213736,-7.238855872496204,0.4718206635586239,1.1570853785327035,9.787465571944018,0.0007625441920981415,-0.0013410257071290814,-0.003272492347489368,5.705383190517215,9.904197791813509,-50.0625
1773079141.7082767,0.0006816460254094207,0.9431695802213736,-7.238855872496204,0.47235724571359694,1.1566692063130146,9.79165847814748,-0.00010517808044826849,-0.004496380555969916,-0.001090830782496456,5.705383190517215,9.904197791813509,-50.0625
1773079141.736276,0.0006816460254094207,0.9431695802213736,-7.238855872496204,0.47235724571359694,1.1566692063130146,9.79165847814748,-0.00010517808044826849,-0.004496380555969916,-0.001090830782496456,5.705383190517215,9.904197791813509,-50.0625
1773079141.7496994,0.0006816460254094207,0.9431695802213736,-7.238855872496204,0.47182735738353165,1.153166873520785,9.791103698680734,-0.00028924075751547,-0.0010517849496136115,-0.001090830782496456,6.666575358806313,10.80663386468499,-49.0
1773079141.7694092,0.0006816460254094207,0.9431695802213736,-7.238855872496204,0.47182735738353165,1.153166873520785,9.791103698680734,-0.00028924075751547,-0.0010517849496136115,-0.001090830782496456,6.666575358806313,10.80663386468499,-49.0
1773079141.7910867,0.0006816460254094207,0.9431695802213736,-7.238855872496204,0.4723617003792982,1.1540614850001518,9.790734499142907,0.0010517849496136115,-0.00028924075751547,-0.002181661564992912,6.666575358806313,10.80663386468499,-49.0
1773079141.8191116,0.0006816460254094207,0.9431695802213736,-7.238855872496204,0.47183032191379404,1.1514314641172307,9.790488800974712,0.002103569899227223,-0.00057848151503094,0.0,5.459812081789399,10.425471309804008,-50.5625
1773079141.8334343,0.0006816460254094207,0.9431695802213736,-7.238855872496204,0.47183032191379404,1.1514314641172307,9.790488800974712,0.002103569899227223,-0.00057848151503094,0.0,5.459812081789399,10.425471309804008,-50.5625
1773079141.8536131,0.0006816460254094207,0.9431695802213736,-7.238855872496204,0.4691382984120971,1.1537935671880641,9.790325291588406,0.002392810656742693,0.0004733034345826715,0.003272492347489368,5.459812081789399,10.425471309804008,-50.5625
1773079141.8728464,0.0006816460254094207,0.9431695802213736,-7.238855872496204,0.4691382984120971,1.1537935671880641,9.790325291588406,0.002392810656742693,0.0004733034345826715,0.003272492347489368,5.459812081789399,10.425471309804008,-50.5625
1773079141.893658,0.0006816460254094207,0.9431695802213736,-7.238855872496204,0.464121412014616,1.1562524981554678,9.78687136621102,-0.00086772227254641,-0.003155354848840835,-0.001090830782496456,5.605949542504395,9.54262076040407,-49.75
1773079141.9157593,0.0006816460254094207,0.9431695802213736,-7.238855872496204,0.465782060508729,1.1634526611439813,9.784572817455244,0.00028924075751547,0.0010517849496136115,0.0,5.605949542504395,9.54262076040407,-49.75
1773079141.9358902,0.0006816460254094207,0.9431695802213736,-7.238855872496204,0.466887203530902,1.1682442891817464,9.783043158934747,0.0,0.0,-0.001090830782496456,5.605949542504395,9.54262076040407,-49.75
1773079141.949664,0.0006816460254094207,0.9431695802213736,-7.238855872496204,0.466887203530902,1.1682442891817464,9.783043158934747,0.0,0.0,-0.001090830782496456,5.605949542504395,9.54262076040407,-49.75
1773079141.9679158,0.0006816460254094207,0.9431695802213736,-7.238855872496204,0.47084803869587644,1.1705460863547024,9.782025188276762,0.0,0.0,0.0,4.67639518040228,10.640910880498451,-49.375
1773079141.9981875,0.0006816460254094207,0.9431695802213736,-7.238855872496204,0.47084803869587644,1.1705460863547024,9.782025188276762,0.0,0.0,0.0,4.67639518040228,10.640910880498451,-49.375
1773079142.014708,0.0006816460254094207,0.9431695802213736,-7.238855872496204,0.473483930252739,1.1720779066605453,9.784692851882669,0.0007625441920981415,-0.0013410257071290814,0.001090830782496456,4.67639518040228,10.640910880498451,-49.375
1773079142.0321352,0.0006816460254094207,0.9431695802213736,-7.238855872496204,0.4743511088788086,1.169871941133555,9.786468152212645,0.00018406267706720146,-0.003444595606356305,-0.001090830782496456,6.268840766755034,9.360325739047234,-49.75
1773079142.055556,0.0006816460254094207,0.9431695802213736,-7.238855872496204,0.4743511088788086,1.169871941133555,9.786468152212645,0.00018406267706720146,-0.003444595606356305,-0.001090830782496456,6.268840766755034,9.360325739047234,-49.75
1773079142.091165,0.0006816460254094207,0.9431695802213736,-7.238855872496204,0.4758151843276224,1.1716292705465674,9.78430448304352,-0.0013410257071290814,-0.0007625441920981415,0.0,6.268840766755034,9.360325739047234,-49.75
1773079142.1209993,0.0006816460254094207,0.9431695802213736,-7.238855872496204,0.4758151843276224,1.1716292705465674,9.78430448304352,-0.0013410257071290814,-0.0007625441920981415,0.0,6.268840766755034,9.360325739047234,-49.75
1773079142.143496,0.0006816460254094207,0.9431695802213736,-7.238855872496204,0.4759025324238291,1.1695733788112965,9.779519473673917,0.0010517849496136115,-0.00028924075751547,0.001090830782496456,5.489943619822772,9.12078089042639,-49.375
1773079142.172252,0.0006816460254094207,0.9431695802213736,-7.238855872496204,0.47362226453732237,1.1723175584164485,9.779680215097821,-0.0010517849496136115,0.00028924075751547,0.001090830782496456,5.489943619822772,9.12078089042639,-49.375
1773079142.2013886,0.0006816460254094207,0.9431695802213736,-7.238855872496204,0.47121779397092894,1.1709184044602075,9.779787186719831,0.0013410257071290814,0.0007625441920981415,0.001090830782496456,4.560389257720657,10.219071010520771,-49.75
1773079142.2289324,0.0006816460254094207,0.9431695802213736,-7.238855872496204,0.47121779397092894,1.1709184044602075,9.779787186719831,0.0013410257071290814,0.0007625441920981415,0.001090830782496456,4.560389257720657,10.219071010520771,-49.75
1773079142.2479296,0.0006816460254094207,0.9431695802213736,-7.238855872496204,0.46961764566869024,1.169987283131903,9.783203486846647,0.00028924075751547,0.0010517849496136115,0.0,4.560389257720657,10.219071010520771,-49.75
1773079142.2692442,0.0006816460254094207,0.9431695802213736,-7.238855872496204,0.4717781396773528,1.1684806545290385,9.78547699641847,0.0,0.0,0.0,5.06207748973812,8.97916318416625,-50.5625
1773079142.2913058,0.0006816460254094207,0.9431695802213736,-7.238855872496204,0.47232894654563395,1.1642526351950018,9.786989991641754,0.00028924075751547,0.0010517849496136115,0.002181661564992912,5.06207748973812,8.97916318416625,-50.5625
1773079142.3206024,0.0006816460254094207,0.9431695802213736,-7.238855872496204,0.4726955023635591,1.161438935558271,9.787996873061584,0.0013410257071290814,0.0007625441920981415,0.0,5.06207748973812,8.97916318416625,-50.5625
1773079142.3361635,0.0006816460254094207,0.9431695802213736,-7.238855872496204,0.4726955023635591,1.161438935558271,9.787996873061584,0.0013410257071290814,0.0007625441920981415,0.0,5.06207748973812,8.97916318416625,-50.5625
1773079142.3547454,0.0006816460254094207,0.9431695802213736,-7.238855872496204,0.4729394411656916,1.1595664498811111,9.785321829691558,0.002103569899227223,-0.00057848151503094,0.001090830782496456,5.128366588413333,9.22021453843921,-50.5625
1773079142.3780758,0.0006816460254094207,0.9431695802213736,-7.238855872496204,0.47310177971353573,1.1583203315799968,9.773506283089041,0.00086772227254641,0.003155354848840835,0.0,5.128366588413333,9.22021453843921,-50.5625
1773079142.404583,0.0006816460254094207,0.9431695802213736,-7.238855872496204,0.46998443937471096,1.158378031530843,9.76564316881337,-0.0007625441920981415,0.0013410257071290814,0.0,5.128366588413333,9.22021453843921,-50.5625
1773079142.4173222,0.0006816460254094207,0.9431695802213736,-7.238855872496204,0.46998443937471096,1.158378031530843,9.76564316881337,-0.0007625441920981415,0.0013410257071290814,0.0,5.128366588413333,9.22021453843921,-50.5625
1773079142.4365058,0.0006816460254094207,0.9431695802213736,-7.238855872496204,0.46790988420219637,1.1584164302035806,9.763755465806971,0.0016302664646445516,0.001814329141711753,0.0,4.344949687026214,9.435654109133653,-50.5625
1773079142.451689,0.0006816460254094207,0.9431695802213736,-7.238855872496204,0.46790988420219637,1.1584164302035806,9.763755465806971,0.0016302664646445516,0.001814329141711753,0.0,4.344949687026214,9.435654109133653,-50.5625
1773079142.4974973,0.0006816460254094207,0.9431695802213736,-7.238855872496204,0.46561052149492793,1.1584589899181985,9.772805695715789,0.00028924075751547,0.0010517849496136115,-0.001090830782496456,6.268840766755034,9.360325739047234,-49.75
1773079142.5312567,0.0006816460254094207,0.9431695802213736,-7.238855872496204,0.46561052149492793,1.1584589899181985,9.772805695715789,0.00028924075751547,0.0010517849496136115,-0.001090830782496456,6.268840766755034,9.360325739047234,-49.75
1773079142.547213,0.0006816460254094207,0.9431695802213736,-7.238855872496204,0.4649990907130649,1.1584703071060012,9.775212270864502,0.0013410257071290814,0.0007625441920981415,0.0,6.268840766755034,9.360325739047234,-49.75
1773079142.5632184,0.0006816460254094207,0.9431695802213736,-7.238855872496204,0.4645921903578644,1.1584778385680627,9.776813819742765,-0.00057848151503094,-0.002103569899227223,0.0,6.268840766755034,9.360325739047234,-49.75
1773079142.5826364,0.0006816460254094207,0.9431695802213736,-7.238855872496204,0.4645921903578644,1.1584778385680627,9.776813819742765,-0.00057848151503094,-0.002103569899227223,0.0,6.268840766755034,9.360325739047234,-49.75
1773079142.6145124,0.0006816460254094207,0.9431695802213736,-7.238855872496204,0.4652083804770377,1.1617082255009072,9.777879632630775,-0.00028924075751547,-0.0010517849496136115,0.0,5.343806159107776,10.003631439826329,-49.375
1773079142.639922,0.0006816460254094207,0.9431695802213736,-7.238855872496204,0.4656184481180529,1.1638580119189288,9.778588919201836,0.0010517849496136115,-0.00028924075751547,0.0,5.343806159107776,10.003631439826329,-49.375
1773079142.6551278,0.0006816460254094207,0.9431695802213736,-7.238855872496204,0.46589134355239287,1.1652886707654344,9.772370718076989,0.0007625441920981415,-0.0013410257071290814,0.0,5.343806159107776,10.003631439826329,-49.375
1773079142.6934752,0.0006816460254094207,0.9431695802213736,-7.238855872496204,0.46929832724447895,1.165353780486093,9.768232574690261,0.002392810656742693,0.0004733034345826715,0.001090830782496456,4.706526718435654,9.336220461120833,-49.375
1773079142.7192686,0.0006816460254094207,0.9431695802213736,-7.238855872496204,0.46929832724447895,1.165353780486093,9.768232574690261,0.002392810656742693,0.0004733034345826715,0.001090830782496456,4.706526718435654,9.336220461120833,-49.375
1773079142.7474856,0.0006816460254094207,0.9431695802213736,-7.238855872496204,0.47156563683306074,1.165397110277868,9.765478686492484,0.0,0.0,0.001090830782496456,4.706526718435654,9.336220461120833,-49.375
1773079142.7687023,0.0006816460254094207,0.9431695802213736,-7.238855872496204,0.47307450603675427,1.1654259457702687,9.756955781245171,-0.0013410257071290814,-0.0007625441920981415,-0.001090830782496456,4.706526718435654,9.336220461120833,-49.375
1773079142.7897413,0.0006816460254094207,0.9431695802213736,-7.238855872496204,0.474078641636639,1.1654451354683482,9.761319218132133,0.0007625441920981415,-0.0013410257071290814,0.001090830782496456,6.006697383358414,9.821336418469492,-51.0
1773079142.8085153,0.0006816460254094207,0.9431695802213736,-7.238855872496204,0.47474688266143256,1.1654579059980568,9.764223036637622,-0.0007625441920981415,0.0013410257071290814,-0.001090830782496456,6.006697383358414,9.821336418469492,-51.0
1773079142.8333786,0.0006816460254094207,0.9431695802213736,-7.238855872496204,0.47519158959869134,1.1654664046429217,9.766155495415246,0.0010517849496136115,-0.00028924075751547,0.0,6.006697383358414,9.821336418469492,-51.0
1773079142.8571715,0.0006816460254094207,0.9431695802213736,-7.238855872496204,0.47519158959869134,1.1654664046429217,9.766155495415246,0.0010517849496136115,-0.00028924075751547,0.0,6.006697383358414,9.821336418469492,-51.0
1773079142.8919098,0.0006816460254094207,0.9431695802213736,-7.238855872496204,0.4722621622687604,1.1663590381563276,9.767441525144775,0.00057848151503094,0.002103569899227223,-0.001090830782496456,5.489943619822772,9.12078089042639,-50.0625
1773079142.9172585,0.0006816460254094207,0.9431695802213736,-7.238855872496204,0.4703126611045388,1.1669530757881297,9.768297363563885,0.00028924075751547,0.0010517849496136115,0.0,5.489943619822772,9.12078089042639,-50.0625
1773079142.935945,0.0006816460254094207,0.9431695802213736,-7.238855872496204,0.4703126611045388,1.1669530757881297,9.768297363563885,0.00028924075751547,0.0010517849496136115,0.0,5.489943619822772,9.12078089042639,-50.0625
1773079142.9536626,0.0006816460254094207,0.9431695802213736,-7.238855872496204,0.4690152898571043,1.167348401196259,9.77221202617878,0.0013410257071290814,0.0007625441920981415,0.001090830782496456,5.489943619822772,9.12078089042639,-50.0625
1773079142.9946737,0.0006816460254094207,0.9431695802213736,-7.238855872496204,0.46726492602433856,1.1643861110103197,9.781507413833985,0.00028924075751547,0.0010517849496136115,0.0,5.821389113198838,10.326037661791188,-49.375
1773079143.0137122,0.0006816460254094207,0.9431695802213736,-7.238855872496204,0.4661000784464782,1.162414739982527,9.787693390482241,0.00057848151503094,0.002103569899227223,0.0,5.821389113198838,10.326037661791188,-49.375
1773079143.0317655,0.0006816460254094207,0.9431695802213736,-7.238855872496204,0.4653248853956122,1.1611028145851885,9.788464977132449,0.00018406267706720146,-0.003444595606356305,-0.001090830782496456,5.821389113198838,10.326037661791188,-49.375
1773079143.0539374,0.0006816460254094207,0.9431695802213736,-7.238855872496204,0.4653248853956122,1.1611028145851885,9.788464977132449,0.00018406267706720146,-0.003444595606356305,-0.001090830782496456,5.821389113198838,10.326037661791188,-49.375
1773079143.0809534,0.0006816460254094207,0.9431695802213736,-7.238855872496204,0.4648090030797346,1.1602297428884263,9.782288236014335,-0.0007625441920981415,0.0013410257071290814,-0.001090830782496456,5.037972211811719,10.541477232485631,-49.75
1773079143.1006544,0.0006816460254094207,0.9431695802213736,-7.238855872496204,0.4648090030797346,1.1602297428884263,9.782288236014335,-0.0007625441920981415,0.0013410257071290814,-0.001090830782496456,5.037972211811719,10.541477232485631,-49.75
1773079143.1219003,0.0006816460254094207,0.9431695802213736,-7.238855872496204,0.4644656891613011,1.1596487234270811,9.781522795506268,-0.0004733034345826715,0.002392810656742693,0.0,5.037972211811719,10.541477232485631,-49.75
1773079143.135955,0.0006816460254094207,0.9431695802213736,-7.238855872496204,0.4642372175836514,1.1592620614659686,9.781013403398681,-0.00028924075751547,-0.0010517849496136115,0.0,5.037972211811719,10.541477232485631,-49.75
1773079143.1499689,0.0006816460254094207,0.9431695802213736,-7.238855872496204,0.4642372175836514,1.1592620614659686,9.781013403398681,-0.00028924075751547,-0.0010517849496136115,0.0,5.037972211811719,10.541477232485631,-49.75
1773079143.172354,0.0006816460254094207,0.9431695802213736,-7.238855872496204,0.4673105471298949,1.1581177644899607,9.780674408641364,-0.0010517849496136115,0.00028924075751547,0.0,5.887678211874051,10.567089016064148,-50.5625
1773079143.216225,0.0006816460254094207,0.9431695802213736,-7.238855872496204,0.46935581361157946,1.1573562476350623,9.777103699709869,-0.0016302664646445516,-0.001814329141711753,0.0,5.887678211874051,10.567089016064148,-50.5625
1773079143.243439,0.0006816460254094207,0.9431695802213736,-7.238855872496204,0.4739422904369916,1.1559624889146438,9.771382321096073,0.0007625441920981415,-0.0013410257071290814,-0.001090830782496456,4.67639518040228,10.640910880498451,-49.0
1773079143.2634416,0.0006816460254094207,0.9431695802213736,-7.238855872496204,0.47143076763223524,1.1600342884048536,9.770919919247898,-0.0004733034345826715,0.002392810656742693,0.0,4.67639518040228,10.640910880498451,-49.0
1773079143.293144,0.0006816460254094207,0.9431695802213736,-7.238855872496204,0.47298475209019264,1.1618570477204233,9.770612195983304,-0.0007625441920981415,0.0013410257071290814,0.002181661564992912,6.570154959596233,9.277464365703217,-49.0
1773079143.3246584,0.0006816460254094207,0.9431695802213736,-7.238855872496204,0.47298475209019264,1.1618570477204233,9.770612195983304,-0.0007625441920981415,0.0013410257071290814,0.002181661564992912,6.570154959596233,9.277464365703217,-49.0
1773079143.340758,0.0006816460254094207,0.9431695802213736,-7.238855872496204,0.473131933627635,1.1598446988544044,9.770407409588211,0.0013410257071290814,0.0007625441920981415,-0.001090830782496456,6.570154959596233,9.277464365703217,-49.0
1773079143.3615515,0.0006816460254094207,0.9431695802213736,-7.238855872496204,0.4732298812966774,1.158505503163479,9.77696134994453,-0.0004733034345826715,0.002392810656742693,-0.001090830782496456,6.570154959596233,9.277464365703217,-49.0
1773079143.392896,0.0006816460254094207,0.9431695802213736,-7.238855872496204,0.473295064376278,1.157614283390964,9.78132292403935,-0.0016302664646445516,-0.001814329141711753,0.0,6.122703306040037,10.243176288447172,-48.5625
1773079143.4050834,0.0006816460254094207,0.9431695802213736,-7.238855872496204,0.473295064376278,1.157614283390964,9.78132292403935,-0.0016302664646445516,-0.001814329141711753,0.0,6.122703306040037,10.243176288447172,-48.5625
1773079143.417112,0.0006816460254094207,0.9431695802213736,-7.238855872496204,0.4742254207477939,1.160246561416907,9.780880391170157,-0.0016302664646445516,-0.001814329141711753,-0.001090830782496456,6.122703306040037,10.243176288447172,-48.5625
1773079143.4291894,0.0006816460254094207,0.9431695802213736,-7.238855872496204,0.4742254207477939,1.160246561416907,9.780880391170157,-0.0016302664646445516,-0.001814329141711753,-0.001090830782496456,6.122703306040037,10.243176288447172,-48.5625
1773079143.4445152,0.0006816460254094207,0.9431695802213736,-7.238855872496204,0.47484456252027607,1.1619983130387,9.777240778781806,0.0,0.0,0.0,6.122703306040037,10.243176288447172,-48.5625
1773079143.4738598,0.0006816460254094207,0.9431695802213736,-7.238855872496204,0.47114424186443704,1.160825687105865,9.774818657394492,-0.00057848151503094,-0.002103569899227223,0.001090830782496456,6.666575358806313,10.80663386468499,-49.75
1773079143.5187724,0.0006816460254094207,0.9431695802213736,-7.238855872496204,0.46868171980326634,1.1600453176466532,9.773206762668105,-0.00028924075751547,-0.0010517849496136115,-0.002181661564992912,6.666575358806313,10.80663386468499,-49.75
1773079143.5425906,0.0006816460254094207,0.9431695802213736,-7.238855872496204,0.46868171980326634,1.1600453176466532,9.773206762668105,-0.00028924075751547,-0.0010517849496136115,-0.002181661564992912,6.666575358806313,10.80663386468499,-49.75
1773079143.573905,0.0006816460254094207,0.9431695802213736,-7.238855872496204,0.4711552914688902,1.1618643875576362,9.782169399855697,-0.0007625441920981415,0.0013410257071290814,-0.001090830782496456,5.887678211874051,10.567089016064148,-49.75
1773079143.6076381,0.0006816460254094207,0.9431695802213736,-7.238855872496204,0.47280142578075685,1.163074958263053,9.78813393478482,0.0018143291417117532,-0.0016302664646445516,-0.001090830782496456,5.887678211874051,10.567089016064148,-49.75
1773079143.627336,0.0006816460254094207,0.9431695802213736,-7.238855872496204,0.46978455718761986,1.1615421824757568,9.785413042737293,0.0004733034345826715,-0.002392810656742693,0.0,5.887678211874051,10.567089016064148,-49.75
1773079143.6458242,0.0006816460254094207,0.9431695802213736,-7.238855872496204,0.46978455718761986,1.1615421824757568,9.785413042737293,0.0004733034345826715,-0.002392810656742693,0.0,5.887678211874051,10.567089016064148,-49.75
1773079143.666357,0.0006816460254094207,0.9431695802213736,-7.238855872496204,0.4677768648395176,1.1605221373115389,9.780257207766699,-0.0010517849496136115,0.00028924075751547,0.0,5.459812081789399,10.425471309804008,-49.375
1773079143.7107124,0.0006816460254094207,0.9431695802213736,-7.238855872496204,0.4664407680092485,1.1598433086494027,9.77682605718822,-0.0013410257071290814,-0.0007625441920981415,0.002181661564992912,5.459812081789399,10.425471309804008,-49.375
1773079143.7332158,0.0006816460254094207,0.9431695802213736,-7.238855872496204,0.4664385882540684,1.1626169305867387,9.777887776514024,0.0007625441920981415,-0.0013410257071290814,-0.001090830782496456,6.1889924047152505,10.484227642720132,-49.75
1773079143.7663682,0.0006816460254094207,0.9431695802213736,-7.238855872496204,0.4687755347201358,1.1603503924134897,9.781939450572485,-0.0013410257071290814,-0.0007625441920981415,-0.001090830782496456,6.1889924047152505,10.484227642720132,-49.75
1773079143.8173523,0.0006816460254094207,0.9431695802213736,-7.238855872496204,0.4687755347201358,1.1603503924134897,9.781939450572485,-0.0013410257071290814,-0.0007625441920981415,-0.001090830782496456,6.1889924047152505,10.484227642720132,-49.75
1773079143.835089,0.0006816460254094207,0.9431695802213736,-7.238855872496204,0.4671053716589264,1.1597290143382673,9.784635794398227,0.0010517849496136115,-0.00028924075751547,0.001090830782496456,5.907263735345595,9.459759387060053,-50.5625
1773079143.8657718,0.0006816460254094207,0.9431695802213736,-7.238855872496204,0.4659938967986354,1.1593154941704544,9.786430181094124,0.0,0.0,0.001090830782496456,5.907263735345595,9.459759387060053,-50.5625
1773079143.9097893,0.0006816460254094207,0.9431695802213736,-7.238855872496204,0.4670281782154683,1.1654910507760474,9.780934101980991,0.0004733034345826715,-0.002392810656742693,-0.001090830782496456,5.907263735345595,9.459759387060053,-50.5625
1773079143.9414937,0.0006816460254094207,0.9431695802213736,-7.238855872496204,0.4644911061157155,1.1704877924717667,9.780621634433746,0.0007625441920981415,-0.0013410257071290814,-0.001090830782496456,7.5690114316777946,9.845441696395893,-50.1875
1773079143.9597268,0.0006816460254094207,0.9431695802213736,-7.238855872496204,0.466028087803257,1.1729260904928214,9.780413690771546,-0.0018143291417117532,0.0016302664646445516,-0.001090830782496456,7.5690114316777946,9.845441696395893,-50.1875
1773079144.0049336,0.0006816460254094207,0.9431695802213736,-7.238855872496204,0.4652769764267366,1.1680980009303104,9.780275306587235,0.0013410257071290814,0.0007625441920981415,0.001090830782496456,5.037972211811719,10.541477232485631,-50.0625
1773079144.0250115,0.0006816460254094207,0.9431695802213736,-7.238855872496204,0.4652769764267366,1.1680980009303104,9.780275306587235,0.0013410257071290814,0.0007625441920981415,0.001090830782496456,5.037972211811719,10.541477232485631,-50.0625
1773079144.04255,0.0006816460254094207,0.9431695802213736,-7.238855872496204,0.4656640979563106,1.1681103360887282,9.77349299004379,0.0016302664646445516,0.001814329141711753,0.001090830782496456,5.037972211811719,10.541477232485631,-50.0625
1773079144.0588028,0.0006816460254094207,0.9431695802213736,-7.238855872496204,0.4656640979563106,1.1681103360887282,9.77349299004379,0.0016302664646445516,0.001814329141711753,0.001090830782496456,5.037972211811719,10.541477232485631,-50.0625
1773079144.1006112,0.0006816460254094207,0.9431695802213736,-7.238855872496204,0.46826012007860146,1.1640061924097034,9.768979434147568,0.00115696303006188,0.004207139798454446,0.0,5.037972211811719,10.541477232485631,-50.0625
1773079144.138283,0.0006816460254094207,0.9431695802213736,-7.238855872496204,0.4708747215617032,1.164500305466576,9.772665936532993,0.0010517849496136115,-0.00028924075751547,0.001090830782496456,5.821389113198838,10.326037661791188,-50.0625
1773079144.164062,0.0006816460254094207,0.9431695802213736,-7.238855872496204,0.4717277318815107,1.1616037573573452,9.775119262689564,0.0013410257071290814,0.0007625441920981415,0.0,5.821389113198838,10.326037661791188,-50.0625
1773079144.2090325,0.0006816460254094207,0.9431695802213736,-7.238855872496204,0.472295400720593,1.159676136947215,9.773406812133993,0.0010517849496136115,-0.00028924075751547,-0.001090830782496456,5.343806159107776,10.003631439826329,-49.375
1773079144.2480059,0.0006816460254094207,0.9431695802213736,-7.238855872496204,0.4726731779917258,1.158393327097204,9.772267195418587,0.002103569899227223,-0.00057848151503094,0.002181661564992912,5.343806159107776,10.003631439826329,-49.375
1773079144.2889166,0.0006816460254094207,0.9431695802213736,-7.238855872496204,0.47469854006598494,1.1639903811298962,9.774853904932156,0.0007625441920981415,-0.0013410257071290814,-0.002181661564992912,6.1889924047152505,10.484227642720132,-49.75
1773079144.3243632,0.0006816460254094207,0.9431695802213736,-7.238855872496204,0.47469854006598494,1.1639903811298962,9.774853904932156,0.0007625441920981415,-0.0013410257071290814,-0.002181661564992912,6.1889924047152505,10.484227642720132,-49.75
1773079144.3485396,0.0006816460254094207,0.9431695802213736,-7.238855872496204,0.47604639590162756,1.1677151580654626,9.776575331217998,-0.00028924075751547,-0.0010517849496136115,0.001090830782496456,6.1889924047152505,10.484227642720132,-49.75
1773079144.370435,0.0006816460254094207,0.9431695802213736,-7.238855872496204,0.47694337890371147,1.1701939555075973,9.777720921181634,-0.0010517849496136115,0.00028924075751547,-0.001090830782496456,5.821389113198838,10.326037661791188,-49.0
1773079144.40467,0.0006816460254094207,0.9431695802213736,-7.238855872496204,0.47987870814043193,1.167731214926197,9.781828410212675,-0.00028924075751547,-0.0010517849496136115,0.001090830782496456,5.821389113198838,10.326037661791188,-49.0
1773079144.4443345,0.0006816460254094207,0.9431695802213736,-7.238855872496204,0.48183213695769334,1.1660922885798901,9.784561898279176,0.0007625441920981415,-0.0013410257071290814,0.001090830782496456,6.006697383358414,9.821336418469492,-51.0
1773079144.4803405,0.0006816460254094207,0.9431695802213736,-7.238855872496204,0.47579439459621736,1.1635501820958238,9.789726115759688,-0.00057848151503094,-0.002103569899227223,-0.001090830782496456,6.006697383358414,9.821336418469492,-51.0
1773079144.5067885,0.0006816460254094207,0.9431695802213736,-7.238855872496204,0.47579439459621736,1.1635501820958238,9.789726115759688,-0.00057848151503094,-0.002103569899227223,-0.001090830782496456,6.006697383358414,9.821336418469492,-51.0
1773079144.534068,0.0006816460254094207,0.9431695802213736,-7.238855872496204,0.47088936674047205,1.158633063798893,9.78981773309756,-0.0019195072221600217,-0.0028661140913253647,-0.001090830782496456,5.887678211874051,10.567089016064148,-49.75
1773079144.562456,0.0006816460254094207,0.9431695802213736,-7.238855872496204,0.46762512549522495,1.155360776500096,9.789878703412482,0.0,0.0,-0.001090830782496456,5.887678211874051,10.567089016064148,-49.75
1773079144.5858915,0.0006816460254094207,0.9431695802213736,-7.238855872496204,0.47045213975982036,1.158746877754356,9.78991927847598,-0.0007625441920981415,0.0013410257071290814,-0.001090830782496456,6.1889924047152505,10.484227642720132,-49.375
1773079144.6152773,0.0006816460254094207,0.9431695802213736,-7.238855872496204,0.4723334861730901,1.1610002903138363,9.789946280727483,-0.0007625441920981415,0.0013410257071290814,0.0,6.1889924047152505,10.484227642720132,-49.375
1773079144.638138,0.0006816460254094207,0.9431695802213736,-7.238855872496204,0.4723334861730901,1.1610002903138363,9.789946280727483,-0.0007625441920981415,0.0013410257071290814,0.0,6.1889924047152505,10.484227642720132,-49.375
1773079144.6623127,0.0006816460254094207,0.9431695802213736,-7.238855872496204,0.4735855011951047,1.162499911199903,9.793309362131543,0.00028924075751547,0.0010517849496136115,0.001090830782496456,6.1889924047152505,10.484227642720132,-49.375
1773079144.6791432,0.0006816460254094207,0.9431695802213736,-7.238855872496204,0.47441870320633117,1.1634978921477173,9.795547455237864,-0.0004733034345826715,0.002392810656742693,-0.003272492347489368,5.821389113198838,10.326037661791188,-50.1875
1773079144.7188432,0.0006816460254094207,0.9431695802213736,-7.238855872496204,0.47408621207714163,1.1609366624913353,9.797036881198983,0.002971292171773633,0.0025768733338098946,0.001090830782496456,5.821389113198838,10.326037661791188,-50.1875
1773079144.7338922,0.0006816460254094207,0.9431695802213736,-7.238855872496204,0.47408621207714163,1.1609366624913353,9.797036881198983,0.002971292171773633,0.0025768733338098946,0.001090830782496456,5.821389113198838,10.326037661791188,-50.1875
1773079144.7610343,0.0006816460254094207,0.9431695802213736,-7.238855872496204,0.47386494294483533,1.1592321927658231,9.794682965830809,0.0016302664646445516,0.001814329141711753,0.001090830782496456,5.821389113198838,10.326037661791188,-50.1875
1773079144.8063655,0.0006816460254094207,0.9431695802213736,-7.238855872496204,0.4704923159800489,1.1589848649638537,9.793116461448248,-0.0013410257071290814,-0.0007625441920981415,-0.002181661564992912,6.006697383358414,9.821336418469492,-51.0
1773079144.8307862,0.0006816460254094207,0.9431695802213736,-7.238855872496204,0.4704923159800489,1.1589848649638537,9.793116461448248,-0.0013410257071290814,-0.0007625441920981415,-0.002181661564992912,6.006697383358414,9.821336418469492,-51.0
1773079144.8525443,0.0006816460254094207,0.9431695802213736,-7.238855872496204,0.47147324523867007,1.1579332933142912,9.788728858573334,0.0013410257071290814,0.0007625441920981415,0.002181661564992912,6.006697383358414,9.821336418469492,-51.0
1773079144.9014177,0.0006816460254094207,0.9431695802213736,-7.238855872496204,0.4721260427025846,1.1572334841283325,9.785808957872815,-0.00057848151503094,-0.002103569899227223,0.0,6.55056943612469,10.384793994707312,-50.5625
1773079144.9203885,0.0006816460254094207,0.9431695802213736,-7.238855872496204,0.4721260427025846,1.1572334841283325,9.785808957872815,-0.00057848151503094,-0.002103569899227223,0.0,6.55056943612469,10.384793994707312,-50.5625
1773079144.9438365,0.0006816460254094207,0.9431695802213736,-7.238855872496204,0.4734474498827787,1.1599931437614321,9.780520684866728,-0.0010517849496136115,0.00028924075751547,0.0,6.55056943612469,10.384793994707312,-50.5625
1773079144.969193,0.0006816460254094207,0.9431695802213736,-7.238855872496204,0.473439853839928,1.1586042915908674,9.777001398255058,-0.0013410257071290814,-0.0007625441920981415,-0.001090830782496456,5.907263735345595,9.459759387060053,-49.375
1773079145.0191681,0.0006816460254094207,0.9431695802213736,-7.238855872496204,0.4734347987582643,1.157680025985852,9.774659352327998,-0.0007625441920981415,0.0013410257071290814,0.0,5.907263735345595,9.459759387060053,-49.375
1773079145.045814,0.0006816460254094207,0.9431695802213736,-7.238855872496204,0.47343143465788595,1.1570649375504374,9.776445858633226,-0.0013410257071290814,-0.0007625441920981415,-0.001090830782496456,4.921966289130096,10.119637362507952,-49.375
1773079145.0721977,0.0006816460254094207,0.9431695802213736,-7.238855872496204,0.4734291958866637,1.1566556030676571,9.780979870330093,0.00028924075751547,0.0010517849496136115,0.0,4.921966289130096,10.119637362507952,-49.375
1773079145.092131,0.0006816460254094207,0.9431695802213736,-7.238855872496204,0.4734291958866637,1.1566556030676571,9.780979870330093,0.00028924075751547,0.0010517849496136115,0.0,4.921966289130096,10.119637362507952,-49.375
1773079145.1140382,0.0006816460254094207,0.9431695802213736,-7.238855872496204,0.473427706009424,1.1563831955419326,9.783997204466127,0.0013410257071290814,0.0007625441920981415,0.002181661564992912,4.921966289130096,10.119637362507952,-49.375
1773079145.1292214,0.0006816460254094207,0.9431695802213736,-7.238855872496204,0.473426714512764,1.1562019113765545,9.786005206627827,-0.00028924075751547,-0.0010517849496136115,-0.002181661564992912,5.821389113198838,10.326037661791188,-49.375
1773079145.1498315,0.0006816460254094207,0.9431695802213736,-7.238855872496204,0.473426714512764,1.1562019113765545,9.786005206627827,-0.00028924075751547,-0.0010517849496136115,-0.002181661564992912,5.821389113198838,10.326037661791188,-49.375
1773079145.192163,0.0006816460254094207,0.9431695802213736,-7.238855872496204,0.4734260546828125,1.156081268789572,9.780651286220946,0.0013410257071290814,0.0007625441920981415,-0.002181661564992912,5.821389113198838,10.326037661791188,-49.375
1773079145.2367966,0.0006816460254094207,0.9431695802213736,-7.238855872496204,0.47342561557335056,1.1560009824956012,9.777088311997376,0.0019195072221600217,0.0028661140913253647,0.0,6.122703306040037,10.243176288447172,-49.0
1773079145.2585545,0.0006816460254094207,0.9431695802213736,-7.238855872496204,0.47019994852193414,1.1568345306240047,9.77471719245262,-0.00028924075751547,-0.0010517849496136115,0.0,6.122703306040037,10.243176288447172,-49.0
1773079145.2884154,0.0006816460254094207,0.9431695802213736,-7.238855872496204,0.47019994852193414,1.1568345306240047,9.77471719245262,-0.00028924075751547,-0.0010517849496136115,0.0,6.122703306040037,10.243176288447172,-49.0
1773079145.3167706,0.0006816460254094207,0.9431695802213736,-7.238855872496204,0.47127867796125317,1.1565022698319303,9.776484350590046,0.0,0.0,-0.001090830782496456,5.887678211874051,10.567089016064148,-50.0625
1773079145.3458688,0.0006816460254094207,0.9431695802213736,-7.238855872496204,0.4687711855239479,1.1571681317465852,9.777660374590052,0.0010517849496136115,-0.00028924075751547,-0.002181661564992912,5.887678211874051,10.567089016064148,-50.0625
1773079145.378442,0.0006816460254094207,0.9431695802213736,-7.238855872496204,0.4687711855239479,1.1571681317465852,9.777660374590052,0.0010517849496136115,-0.00028924075751547,-0.002181661564992912,5.887678211874051,10.567089016064148,-50.0625
1773079145.4105155,0.0006816460254094207,0.9431695802213736,-7.238855872496204,0.4671024773174471,1.1576112554126232,9.775097893717689,-0.0010517849496136115,0.00028924075751547,-0.002181661564992912,5.343806159107776,10.003631439826329,-49.0
1773079145.431284,0.0006816460254094207,0.9431695802213736,-7.238855872496204,0.4659919706467128,1.1579061492623557,9.773392591321917,0.00057848151503094,0.002103569899227223,-0.001090830782496456,5.343806159107776,10.003631439826329,-49.0
1773079145.4504735,0.0006816460254094207,0.9431695802213736,-7.238855872496204,0.46525294086251157,1.1581023978251725,9.778947955041646,-0.0004733034345826715,0.002392810656742693,0.0,5.343806159107776,10.003631439826329,-49.0
1773079145.4796681,0.0006816460254094207,0.9431695802213736,-7.238855872496204,0.4679864996256039,1.1573460212913027,9.782644987539648,-0.0013410257071290814,-0.0007625441920981415,0.0,5.605949542504395,9.54262076040407,-49.75
1773079145.5128472,0.0006816460254094207,0.9431695802213736,-7.238855872496204,0.4679864996256039,1.1573460212913027,9.782644987539648,-0.0013410257071290814,-0.0007625441920981415,0.0,5.605949542504395,9.54262076040407,-49.75
1773079145.5358717,0.0006816460254094207,0.9431695802213736,-7.238855872496204,0.46980565244658967,1.156842661157292,9.781760209661188,0.00057848151503094,0.002103569899227223,-0.001090830782496456,5.605949542504395,9.54262076040407,-49.75
1773079145.5544918,0.0006816460254094207,0.9431695802213736,-7.238855872496204,0.46956485901908135,1.1638454080291427,9.78117139986669,0.0010517849496136115,-0.00028924075751547,-0.001090830782496456,5.821389113198838,10.326037661791188,-50.0625
1773079145.5788345,0.0006816460254094207,0.9431695802213736,-7.238855872496204,0.46956485901908135,1.1638454080291427,9.78117139986669,0.0010517849496136115,-0.00028924075751547,-0.001090830782496456,5.821389113198838,10.326037661791188,-50.0625
1773079145.6000257,0.0006816460254094207,0.9431695802213736,-7.238855872496204,0.4694046136829134,1.1685056578465511,9.780779553525887,-0.0022087479796754914,-0.003917899040938976,0.0,5.821389113198838,10.326037661791188,-50.0625
1773079145.6157596,0.0006816460254094207,0.9431695802213736,-7.238855872496204,0.4692979722017513,1.171607002041635,9.777173672455975,0.00018406267706720146,-0.003444595606356305,-0.001090830782496456,5.821389113198838,10.326037661791188,-50.0625
1773079145.6354058,0.0006816460254094207,0.9431695802213736,-7.238855872496204,0.4692979722017513,1.171607002041635,9.777173672455975,0.00018406267706720146,-0.003444595606356305,-0.001090830782496456,5.821389113198838,10.326037661791188,-50.0625
1773079145.669409,0.0006816460254094207,0.9431695802213736,-7.238855872496204,0.47218737103688624,1.1649699688256885,9.773177042928426,-0.0010517849496136115,0.00028924075751547,0.0,6.122703306040037,10.243176288447172,-49.0
1773079145.7215006,0.0006816460254094207,0.9431695802213736,-7.238855872496204,0.47218737103688624,1.1649699688256885,9.773177042928426,-0.0010517849496136115,0.00028924075751547,0.0,6.122703306040037,10.243176288447172,-49.0
1773079145.7646184,0.0006816460254094207,0.9431695802213736,-7.238855872496204,0.47287674085819,1.1598841392867374,9.785894638169886,-0.00057848151503094,-0.002103569899227223,0.001090830782496456,5.526101180464612,10.666522664076968,-49.75
1773079145.8099413,0.0006816460254094207,0.9431695802213736,-7.238855872496204,0.47287674085819,1.1598841392867374,9.785894638169886,-0.00057848151503094,-0.002103569899227223,0.001090830782496456,5.526101180464612,10.666522664076968,-49.75
1773079145.8459115,0.0006816460254094207,0.9431695802213736,-7.238855872496204,0.46781022003319717,1.1591090021388912,9.787062859078285,-0.0004733034345826715,0.002392810656742693,-0.001090830782496456,5.887678211874051,10.567089016064148,-50.0625
1773079145.890233,0.0006816460254094207,0.9431695802213736,-7.238855872496204,0.46781022003319717,1.1591090021388912,9.787062859078285,-0.0004733034345826715,0.002392810656742693,-0.001090830782496456,5.887678211874051,10.567089016064148,-50.0625
1773079145.9379427,0.0006816460254094207,0.9431695802213736,-7.238855872496204,0.46646296551804034,1.15890288297776,9.784700253819294,-0.0007625441920981415,0.0013410257071290814,-0.001090830782496456,5.887678211874051,10.567089016064148,-50.0625
1773079145.9714563,0.0006816460254094207,0.9431695802213736,-7.238855872496204,0.4720171323459719,1.15699175745816,9.783127966411465,0.0016302664646445516,0.001814329141711753,-0.001090830782496456,5.887678211874051,10.567089016064148,-50.0625
1773079146.000545,0.0006816460254094207,0.9431695802213736,-7.238855872496204,0.4757133683258516,1.1557199247735372,9.778736514997837,-0.0013410257071290814,-0.0007625441920981415,0.0,5.037972211811719,10.541477232485631,-51.0
1773079146.0357478,0.0006816460254094207,0.9431695802213736,-7.238855872496204,0.47494779725182557,1.1557605120894072,9.775814053137793,-0.0010517849496136115,0.00028924075751547,0.0,5.037972211811719,10.541477232485631,-51.0
1773079146.0593164,0.0006816460254094207,0.9431695802213736,-7.238855872496204,0.4744383182540504,1.1557875224947287,9.773869187415972,-0.00028924075751547,-0.0010517849496136115,-0.002181661564992912,6.3049983273968735,10.90606751269781,-50.5625
1773079146.0931356,0.0006816460254094207,0.9431695802213736,-7.238855872496204,0.4740992656722844,1.155805497617744,9.772574901003674,0.0010517849496136115,-0.00028924075751547,0.001090830782496456,6.3049983273968735,10.90606751269781,-50.5625
1773079146.1236155,0.0006816460254094207,0.9431695802213736,-7.238855872496204,0.4740992656722844,1.155805497617744,9.772574901003674,0.0010517849496136115,-0.00028924075751547,0.001090830782496456,6.3049983273968735,10.90606751269781,-50.5625
1773079146.1512756,0.0006816460254094207,0.9431695802213736,-7.238855872496204,0.4738736299665846,1.1558174598613156,9.771713567854416,0.00057848151503094,0.002103569899227223,-0.002181661564992912,5.244372511094956,9.64205440841689,-49.0
1773079146.1775846,0.0006816460254094207,0.9431695802213736,-7.238855872496204,0.4737234719249574,1.1558254206007852,9.774485471972627,0.003155354848840835,-0.00086772227254641,0.002181661564992912,5.244372511094956,9.64205440841689,-49.0
1773079146.2211308,0.0006816460254094207,0.9431695802213736,-7.238855872496204,0.4736235434256297,1.155830718383975,9.776330143199097,-0.00028924075751547,-0.0010517849496136115,0.0,5.459812081789399,10.425471309804008,-50.0625
1773079146.2381077,0.0006816460254094207,0.9431695802213736,-7.238855872496204,0.47033166729662695,1.1567212217596925,9.777557751293985,-0.00028924075751547,-0.0010517849496136115,-0.003272492347489368,5.459812081789399,10.425471309804008,-50.0625
1773079146.258389,0.0006816460254094207,0.9431695802213736,-7.238855872496204,0.47033166729662695,1.1567212217596925,9.777557751293985,-0.00028924075751547,-0.0010517849496136115,-0.003272492347489368,5.459812081789399,10.425471309804008,-50.0625
1773079146.3087204,0.0006816460254094207,0.9431695802213736,-7.238855872496204,0.4681603211591021,1.163080049579104,9.776692253697801,0.0007625441920981415,-0.0013410257071290814,-0.001090830782496456,5.459812081789399,10.425471309804008,-50.0625
1773079146.3427322,0.0006816460254094207,0.9431695802213736,-7.238855872496204,0.46669595390644425,1.161545570689715,9.777798731785834,-0.00057848151503094,-0.002103569899227223,-0.002181661564992912,5.459812081789399,10.425471309804008,-50.0625
1773079146.3731327,0.0006816460254094207,0.9431695802213736,-7.238855872496204,0.46669595390644425,1.161545570689715,9.777798731785834,-0.00057848151503094,-0.002103569899227223,-0.002181661564992912,5.459812081789399,10.425471309804008,-50.0625
1773079146.3936574,0.0006816460254094207,0.9431695802213736,-7.238855872496204,0.4657214338578545,1.1605243921300792,9.788570415715208,-0.00057848151503094,-0.002103569899227223,0.001090830782496456,5.343806159107776,10.003631439826329,-49.375
1773079146.4341176,0.0006816460254094207,0.9431695802213736,-7.238855872496204,0.4693439370933219,1.1638774023490617,9.797164252969011,-0.0010517849496136115,0.00028924075751547,0.0,5.343806159107776,10.003631439826329,-49.375
1773079146.4482818,0.0006816460254094207,0.9431695802213736,-7.238855872496204,0.4693439370933219,1.1638774023490617,9.797164252969011,-0.0010517849496136115,0.00028924075751547,0.0,5.343806159107776,10.003631439826329,-49.375
1773079146.4655564,0.0006816460254094207,0.9431695802213736,-7.238855872496204,0.47248296743815477,1.1676399719488728,9.794767730320928,0.00028924075751547,0.0010517849496136115,-0.001090830782496456,5.128366588413333,9.22021453843921,-49.75
1773079146.50398,0.0006816460254094207,0.9431695802213736,-7.238855872496204,0.47779733189634915,1.1692569422267063,9.783137536147581,-0.0013410257071290814,-0.0007625441920981415,0.0,5.128366588413333,9.22021453843921,-49.75
1773079146.5268965,0.0006816460254094207,0.9431695802213736,-7.238855872496204,0.47779733189634915,1.1692569422267063,9.783137536147581,-0.0013410257071290814,-0.0007625441920981415,0.0,5.128366588413333,9.22021453843921,-49.75
1773079146.544952,0.0006816460254094207,0.9431695802213736,-7.238855872496204,0.47399625465980294,1.168881598575257,9.775397771843002,-0.0010517849496136115,0.00028924075751547,0.0,4.921966289130096,10.119637362507952,-49.0
1773079146.5707362,0.0006816460254094207,0.9431695802213736,-7.238855872496204,0.4705797024595119,1.1654064367391062,9.773592156864455,0.0,0.0,0.001090830782496456,4.921966289130096,10.119637362507952,-49.0
1773079146.625899,0.0006816460254094207,0.9431695802213736,-7.238855872496204,0.4683060251356071,1.1630937553572491,9.772390540266272,-0.00028924075751547,-0.0010517849496136115,-0.001090830782496456,5.343806159107776,10.003631439826329,-50.0625
1773079146.6580114,0.0006816460254094207,0.9431695802213736,-7.238855872496204,0.4676798960353727,1.164780066560942,9.771590877843119,0.002392810656742693,0.0004733034345826715,0.0,5.343806159107776,10.003631439826329,-50.0625
1773079146.6928053,0.0006816460254094207,0.9431695802213736,-7.238855872496204,0.47048858894246176,1.1650153100694844,9.771058711433325,0.0,0.0,0.0,5.037972211811719,10.541477232485631,-51.0
1773079146.7157063,0.0006816460254094207,0.9431695802213736,-7.238855872496204,0.4714707649367895,1.1619464871676026,9.770704560632296,0.0,0.0,-0.001090830782496456,5.037972211811719,10.541477232485631,-51.0
1773079146.738228,0.0006816460254094207,0.9431695802213736,-7.238855872496204,0.4721243920893899,1.1599042198073986,9.777159100644974,0.0007625441920981415,-0.0013410257071290814,-0.002181661564992912,5.037972211811719,10.541477232485631,-51.0
1773079146.7523317,0.0006816460254094207,0.9431695802213736,-7.238855872496204,0.4721243920893899,1.1599042198073986,9.777159100644974,0.0007625441920981415,-0.0013410257071290814,-0.002181661564992912,5.037972211811719,10.541477232485631,-51.0
1773079146.7790637,0.0006816460254094207,0.9431695802213736,-7.238855872496204,0.47255937365795175,1.1585451136928038,9.781454524921475,-0.0019195072221600217,-0.0028661140913253647,0.0,5.343806159107776,10.003631439826329,-49.375
1773079146.8005793,0.0006816460254094207,0.9431695802213736,-7.238855872496204,0.4696234742037924,1.1585276215159352,9.780967970087133,0.00028924075751547,0.0010517849496136115,0.0,5.343806159107776,10.003631439826329,-49.375
1773079146.8268924,0.0006816460254094207,0.9431695802213736,-7.238855872496204,0.475007393331329,1.1599673999762359,9.780644173280052,-0.00028924075751547,-0.0010517849496136115,0.001090830782496456,6.122703306040037,10.243176288447172,-51.0
1773079146.8467016,0.0006816460254094207,0.9431695802213736,-7.238855872496204,0.475007393331329,1.1599673999762359,9.780644173280052,-0.00028924075751547,-0.0010517849496136115,0.001090830782496456,6.122703306040037,10.243176288447172,-51.0
1773079146.8637707,0.0006816460254094207,0.9431695802213736,-7.238855872496204,0.47125260395025353,1.1594741371495807,9.780428690121987,0.00028924075751547,0.0010517849496136115,-0.001090830782496456,6.122703306040037,10.243176288447172,-51.0
1773079146.8976133,0.0006816460254094207,0.9431695802213736,-7.238855872496204,0.47125260395025353,1.1594741371495807,9.780428690121987,0.00028924075751547,0.0010517849496136115,-0.001090830782496456,6.122703306040037,10.243176288447172,-51.0
1773079146.9299273,0.0006816460254094207,0.9431695802213736,-7.238855872496204,0.4719792083898681,1.1582588984883642,9.7802852884874,0.00028924075751547,0.0010517849496136115,0.0,5.605949542504395,9.54262076040407,-50.0625
1773079146.9806817,0.0006816460254094207,0.9431695802213736,-7.238855872496204,0.47246275552772815,1.1574501707344298,9.786880079716124,0.00115696303006188,0.004207139798454446,-0.001090830782496456,5.605949542504395,9.54262076040407,-50.0625
1773079147.004146,0.0006816460254094207,0.9431695802213736,-7.238855872496204,0.4727845507463986,1.1569119714482674,9.787923727902873,0.0010517849496136115,-0.00028924075751547,-0.001090830782496456,4.858690201759116,11.303802104749089,-50.0625
1773079147.0212746,0.0006816460254094207,0.9431695802213736,-7.238855872496204,0.46977332704076097,1.1574407835955907,9.788618264112841,0.0016302664646445516,0.001814329141711753,-0.001090830782496456,4.858690201759116,11.303802104749089,-50.0625
1773079147.0398278,0.0006816460254094207,0.9431695802213736,-7.238855872496204,0.46776939130223194,1.1577927021724157,9.789080470202098,0.0013410257071290814,0.0007625441920981415,0.0,4.858690201759116,11.303802104749089,-50.0625
1773079147.0803008,0.0006816460254094207,0.9431695802213736,-7.238855872496204,0.4696611692826445,1.1571399222939203,9.789388063191318,0.0019195072221600217,0.0028661140913253647,-0.001090830782496456,5.459812081789399,10.425471309804008,-49.75
1773079147.1062698,0.0006816460254094207,0.9431695802213736,-7.238855872496204,0.47092012639606434,1.1567055045768104,9.789592762889605,0.00057848151503094,0.002103569899227223,0.001090830782496456,5.459812081789399,10.425471309804008,-49.75
1773079147.1230466,0.0006816460254094207,0.9431695802213736,-7.238855872496204,0.4717579482915728,1.1564164044388376,9.789728988252168,0.0007625441920981415,-0.0013410257071290814,0.0,5.459812081789399,10.425471309804008,-49.75
1773079147.145835,0.0006816460254094207,0.9431695802213736,-7.238855872496204,0.4717579482915728,1.1564164044388376,9.789728988252168,0.0007625441920981415,-0.0013410257071290814,0.0,5.459812081789399,10.425471309804008,-49.75
1773079147.1619272,0.0006816460254094207,0.9431695802213736,-7.238855872496204,0.4723155094039499,1.156224011526477,9.786474533001899,-0.0010517849496136115,0.00028924075751547,0.0,6.368274414767853,9.721902770456673,-49.375
1773079147.2116916,0.0006816460254094207,0.9431695802213736,-7.238855872496204,0.47357353785605555,1.1593213510214453,9.78430872938749,0.0010517849496136115,-0.00028924075751547,0.001090830782496456,6.368274414767853,9.721902770456673,-49.375
1773079147.2331371,0.0006816460254094207,0.9431695802213736,-7.238855872496204,0.4744107417378332,1.1613825958557975,9.782867411275713,-0.00028924075751547,-0.0010517849496136115,0.001090830782496456,5.705383190517215,9.904197791813509,-49.75
1773079147.2498903,0.0006816460254094207,0.9431695802213736,-7.238855872496204,0.4744107417378332,1.1613825958557975,9.782867411275713,-0.00028924075751547,-0.0010517849496136115,0.001090830782496456,5.705383190517215,9.904197791813509,-49.75
1773079147.283905,0.0006816460254094207,0.9431695802213736,-7.238855872496204,0.4749678915689761,1.1627543312674453,9.781908230172904,0.00028924075751547,0.0010517849496136115,-0.001090830782496456,5.705383190517215,9.904197791813509,-49.75
1773079147.303547,-30.419427754888815,0.9702409108486411,7.077530423354506,0.4753386685578303,1.1636672058606083,9.777924794156421,0.0013410257071290814,0.0007625441920981415,0.0,5.605949542504395,9.54262076040407,-49.75
1773079147.3334665,-30.419427754888815,0.9702409108486411,7.077530423354506,0.4753386685578303,1.1636672058606083,9.777924794156421,0.0013410257071290814,0.0007625441920981415,0.0,5.605949542504395,9.54262076040407,-49.75
1773079147.364074,0.0006816460254094207,0.9431695802213736,-7.238855872496204,0.47558541650206243,1.164274713704881,9.775273861985347,0.0,0.0,-0.001090830782496456,5.605949542504395,9.54262076040407,-49.75
1773079147.4025128,0.0006816460254094207,0.9431695802213736,-7.238855872496204,0.4757496245025938,1.1646790033889372,9.77350969623835,-0.00018406267706720146,0.003444595606356305,0.0,5.605949542504395,9.54262076040407,-49.375
1773079147.418372,0.0006816460254094207,0.9431695802213736,-7.238855872496204,0.4757496245025938,1.1646790033889372,9.77350969623835,-0.00018406267706720146,0.003444595606356305,0.0,5.605949542504395,9.54262076040407,-49.375
1773079147.4474528,0.0006816460254094207,0.9431695802213736,-7.238855872496204,0.47174655050346476,1.1626096565886748,9.772335663640746,0.0004733034345826715,-0.002392810656742693,-0.001090830782496456,5.605949542504395,9.54262076040407,-49.375
1773079147.4678347,0.0006816460254094207,0.9431695802213736,-7.238855872496204,0.46996952723449537,1.1644579042381933,9.771554358061843,-0.0007625441920981415,0.0013410257071290814,0.0,6.484280337449476,10.143742640434352,-49.375
1773079147.5012577,0.0006816460254094207,0.9431695802213736,-7.238855872496204,0.46996952723449537,1.1644579042381933,9.771554358061843,-0.0007625441920981415,0.0013410257071290814,0.0,6.484280337449476,10.143742640434352,-49.375
1773079147.5172088,0.0006816460254094207,0.9431695802213736,-7.238855872496204,0.46878693809964683,1.1656878924026686,9.777724631341478,0.00028924075751547,0.0010517849496136115,0.0,6.484280337449476,10.143742640434352,-49.375
1773079147.5311852,0.0006816460254094207,0.9431695802213736,-7.238855872496204,0.4679999382407914,1.166506435786259,9.781830879282607,0.0004733034345826715,-0.002392810656742693,0.0,6.484280337449476,10.143742640434352,-49.375
1773079147.5439641,0.0006816460254094207,0.9431695802213736,-7.238855872496204,0.4679999382407914,1.166506435786259,9.781830879282607,0.0004733034345826715,-0.002392810656742693,0.0,6.484280337449476,10.143742640434352,-49.375
1773079147.5629084,0.0006816460254094207,0.9431695802213736,-7.238855872496204,0.4665892208659031,1.1638257924353348,9.784563541417633,0.0,0.0,0.0,6.122703306040037,10.243176288447172,-49.75
1773079147.6035204,0.0006816460254094207,0.9431695802213736,-7.238855872496204,0.4656504042116606,1.1620418542300432,9.786382097542656,0.0007625441920981415,-0.0013410257071290814,0.0,6.122703306040037,10.243176288447172,-49.75
1773079147.6265814,0.0006816460254094207,0.9431695802213736,-7.238855872496204,0.4656504042116606,1.1620418542300432,9.786382097542656,0.0007625441920981415,-0.0013410257071290814,0.0,6.122703306040037,10.243176288447172,-49.75
1773079147.6592104,0.0006816460254094207,0.9431695802213736,-7.238855872496204,0.46502563221553134,1.160854663282317,9.787592326329257,0.00057848151503094,0.002103569899227223,0.0,5.104261310486932,10.78252858675859,-50.0625
1773079147.6940775,0.0006816460254094207,0.9431695802213736,-7.238855872496204,0.4646098534312678,1.160064600968397,9.785052608360278,-0.00057848151503094,-0.002103569899227223,-0.002181661564992912,5.104261310486932,10.78252858675859,-50.0625
1773079147.726906,0.0006816460254094207,0.9431695802213736,-7.238855872496204,0.46433315729489383,1.1595388233240578,9.786707566129751,0.0016302664646445516,0.001814329141711753,-0.001090830782496456,5.642107103146235,11.088362534054646,-49.75
1773079147.7530172,0.0006816460254094207,0.9431695802213736,-7.238855872496204,0.46433315729489383,1.1595388233240578,9.786707566129751,0.0016302664646445516,0.001814329141711753,-0.001090830782496456,5.642107103146235,11.088362534054646,-49.75
1773079147.795477,0.0006816460254094207,0.9431695802213736,-7.238855872496204,0.4650359968672197,1.1624142990040458,9.784463810330926,-0.0004733034345826715,0.002392810656742693,0.0,5.642107103146235,11.088362534054646,-49.75
1773079147.8308225,0.0006816460254094207,0.9431695802213736,-7.238855872496204,0.4687291035803448,1.1634409181877254,9.786315727618522,-0.0013410257071290814,-0.0007625441920981415,-0.001090830782496456,5.526101180464612,10.666522664076968,-51.25
1773079147.8512552,0.0006816460254094207,0.9431695802213736,-7.238855872496204,0.4687291035803448,1.1634409181877254,9.786315727618522,-0.0013410257071290814,-0.0007625441920981415,-0.001090830782496456,5.526101180464612,10.666522664076968,-51.25
1773079147.9005473,0.0006816460254094207,0.9431695802213736,-7.238855872496204,0.47118682484322444,1.1641241217863765,9.790893269593465,-0.0007625441920981415,0.0013410257071290814,0.002181661564992912,5.104261310486932,10.78252858675859,-49.75
1773079147.950352,0.0006816460254094207,0.9431695802213736,-7.238855872496204,0.4769347634782845,1.1669171832181846,9.793939572643295,0.0010517849496136115,-0.00028924075751547,-0.001090830782496456,5.104261310486932,10.78252858675859,-49.75
1773079147.96624,0.0006816460254094207,0.9431695802213736,-7.238855872496204,0.4766475998420762,1.1664375373317222,9.795966853293523,0.002103569899227223,-0.00057848151503094,0.0,6.851883628965889,10.301932621363296,-51.0
1773079148.027348,0.0006816460254094207,0.9431695802213736,-7.238855872496204,0.4764564956500076,1.166118338352277,9.79731598592004,0.0,0.0,-0.001090830782496456,6.851883628965889,10.301932621363296,-51.0
1773079148.0587034,0.0006816460254094207,0.9431695802213736,-7.238855872496204,0.47310394311598497,1.166792892757327,9.79486870690487,0.0007625441920981415,-0.0013410257071290814,-0.001090830782496456,6.1889924047152505,10.484227642720132,-49.75
1773079148.089708,0.0006816460254094207,0.9431695802213736,-7.238855872496204,0.4699858790948741,1.1640164263496466,9.789894958350851,0.0013410257071290814,0.0007625441920981415,-0.001090830782496456,6.1889924047152505,10.484227642720132,-49.75
1773079148.1294255,0.0006816460254094207,0.9431695802213736,-7.238855872496204,0.4679108423198822,1.1621687189704972,9.786584984248565,-0.00028924075751547,-0.0010517849496136115,0.0,6.006697383358414,9.821336418469492,-50.5625
1773079148.143785,0.0006816460254094207,0.9431695802213736,-7.238855872496204,0.4679108423198822,1.1621687189704972,9.786584984248565,-0.00028924075751547,-0.0010517849496136115,0.0,6.006697383358414,9.821336418469492,-50.5625
1773079148.1584659,0.0006816460254094207,0.9431695802213736,-7.238855872496204,0.4665299285258047,1.1609390903499173,9.781037121751007,0.002392810656742693,0.0004733034345826715,0.001090830782496456,6.006697383358414,9.821336418469492,-50.5625
1773079148.1752844,0.0006816460254094207,0.9431695802213736,-7.238855872496204,0.4665299285258047,1.1609390903499173,9.781037121751007,0.002392810656742693,0.0004733034345826715,0.001090830782496456,6.006697383358414,9.821336418469492,-50.5625
1773079148.2053585,0.0006816460254094207,0.9431695802213736,-7.238855872496204,0.4656109458216639,1.160120786238773,9.777345081232566,-0.0010517849496136115,0.00028924075751547,-0.001090830782496456,6.1889924047152505,10.484227642720132,-49.75
1773079148.2224088,0.0006816460254094207,0.9431695802213736,-7.238855872496204,0.4656109458216639,1.160120786238773,9.777345081232566,-0.0010517849496136115,0.00028924075751547,-0.001090830782496456,6.1889924047152505,10.484227642720132,-49.75
1773079148.2363744,0.0006816460254094207,0.9431695802213736,-7.238855872496204,0.46588635085795205,1.162801588822837,9.77488806951034,-0.00028924075751547,-0.0010517849496136115,0.0,6.1889924047152505,10.484227642720132,-49.75
1773079148.253447,0.0006816460254094207,0.9431695802213736,-7.238855872496204,0.46588635085795205,1.162801588822837,9.77488806951034,-0.00028924075751547,-0.0010517849496136115,0.0,6.1889924047152505,10.484227642720132,-49.75
1773079148.2694607,0.0006816460254094207,0.9431695802213736,-7.238855872496204,0.4628442550041514,1.165472610756189,9.773252955655817,0.0010517849496136115,-0.00028924075751547,0.0,6.1889924047152505,10.484227642720132,-49.75
1773079148.2844362,0.0006816460254094207,0.9431695802213736,-7.238855872496204,0.4608197741958843,1.1672501460155646,9.77216480565105,0.00028924075751547,0.0010517849496136115,0.0,5.343806159107776,10.003631439826329,-49.0
1773079148.299814,0.0006816460254094207,0.9431695802213736,-7.238855872496204,0.4608197741958843,1.1672501460155646,9.77216480565105,0.00028924075751547,0.0010517849496136115,0.0,5.343806159107776,10.003631439826329,-49.0
1773079148.3126242,0.0006816460254094207,0.9431695802213736,-7.238855872496204,0.459472504832915,1.1684330758743093,9.77144065397831,0.0019195072221600217,0.0028661140913253647,0.002181661564992912,5.343806159107776,10.003631439826329,-49.0
1773079148.3280613,0.0006816460254094207,0.9431695802213736,-7.238855872496204,0.46180128695081846,1.168333324720927,9.774303850836725,0.00028924075751547,0.0010517849496136115,-0.001090830782496456,5.343806159107776,10.003631439826329,-49.0
1773079148.3445756,0.0006816460254094207,0.9431695802213736,-7.238855872496204,0.46180128695081846,1.168333324720927,9.774303850836725,0.00028924075751547,0.0010517849496136115,-0.001090830782496456,5.343806159107776,10.003631439826329,-49.0
1773079148.361568,0.0006816460254094207,0.9431695802213736,-7.238855872496204,0.46335106543608245,1.1682669414426445,9.776209276361996,0.0013410257071290814,0.0007625441920981415,-0.001090830782496456,5.887678211874051,10.567089016064148,-49.375
1773079148.380547,0.0006816460254094207,0.9431695802213736,-7.238855872496204,0.4634954479456812,1.1649973892835226,9.777477315764067,0.0019195072221600217,0.0028661140913253647,-0.003272492347489368,5.887678211874051,10.567089016064148,-49.375
1773079148.4160454,0.0006816460254094207,0.9431695802213736,-7.238855872496204,0.46447851065314527,1.1660469136738925,9.778321181821216,0.0007625441920981415,-0.0013410257071290814,-0.001090830782496456,4.2590750648794575,10.301932383864788,-50.0625
1773079148.4502113,0.0006816460254094207,0.9431695802213736,-7.238855872496204,0.46447851065314527,1.1660469136738925,9.778321181821216,0.0007625441920981415,-0.0013410257071290814,-0.001090830782496456,4.2590750648794575,10.301932383864788,-50.0625
1773079148.4826317,0.0006816460254094207,0.9431695802213736,-7.238855872496204,0.4649778283842014,1.1650637180280208,9.775911381050642,-0.00028924075751547,-0.0010517849496136115,-0.001090830782496456,4.2590750648794575,10.301932383864788,-50.0625
1773079148.4987397,0.0006816460254094207,0.9431695802213736,-7.238855872496204,0.4649778283842014,1.1650637180280208,9.775911381050642,-0.00028924075751547,-0.0010517849496136115,-0.001090830782496456,4.2590750648794575,10.301932383864788,-50.0625
1773079148.5113845,0.0006816460254094207,0.9431695802213736,-7.238855872496204,0.46546501827570597,1.1660910547124155,9.77393395805475,0.002682051414258163,0.001525088384196283,0.001090830782496456,6.1889924047152505,10.484227642720132,-50.1875
1773079148.524568,0.0006816460254094207,0.9431695802213736,-7.238855872496204,0.46578923770623454,1.1667747357997773,9.775963116847564,0.00028924075751547,0.0010517849496136115,-0.001090830782496456,6.1889924047152505,10.484227642720132,-50.1875
1773079148.5598032,0.0006816460254094207,0.9431695802213736,-7.238855872496204,0.46578923770623454,1.1667747357997773,9.775963116847564,0.00028924075751547,0.0010517849496136115,-0.001090830782496456,6.1889924047152505,10.484227642720132,-50.1875
1773079148.601717,0.0006816460254094207,0.9431695802213736,-7.238855872496204,0.4724557517734323,1.1654557624058295,9.777313499356993,0.0007625441920981415,-0.0013410257071290814,-0.001090830782496456,5.705383190517215,9.904197791813509,-50.1875
1773079148.632576,0.0006816460254094207,0.9431695802213736,-7.238855872496204,0.47689224241531086,1.1645780003460555,9.784902387246897,-0.00057848151503094,-0.002103569899227223,-0.001090830782496456,5.705383190517215,9.904197791813509,-50.1875
1773079148.6701238,0.0006816460254094207,0.9431695802213736,-7.238855872496204,0.4766193025496586,1.1648808372607051,9.779917372242236,0.00018406267706720146,-0.003444595606356305,0.0,6.006697383358414,9.821336418469492,-50.5625
1773079148.7151308,0.0006816460254094207,0.9431695802213736,-7.238855872496204,0.4723253115288461,1.1627439747757042,9.77994501215022,0.0016302664646445516,0.001814329141711753,-0.001090830782496456,6.006697383358414,9.821336418469492,-50.5625
1773079148.7434125,0.0006816460254094207,0.9431695802213736,-7.238855872496204,0.4726930833004926,1.1604349389020696,9.779963406200226,-0.00028924075751547,-0.0010517849496136115,0.0,5.887678211874051,10.567089016064148,-50.5625
1773079148.7727406,0.0006816460254094207,0.9431695802213736,-7.238855872496204,0.46971245647726884,1.1597852790819712,9.783320758942349,0.00028924075751547,0.0010517849496136115,0.0,5.887678211874051,10.567089016064148,-50.5625
1773079148.796274,0.0006816460254094207,0.9431695802213736,-7.238855872496204,0.46772888262219664,1.1593529377288712,9.785555039688145,0.002103569899227223,-0.00057848151503094,0.0,5.887678211874051,10.567089016064148,-50.5625
1773079148.8302526,0.0006816460254094207,0.9431695802213736,-7.238855872496204,0.46640883637961794,1.1590652193879525,9.787041928565921,0.0,0.0,-0.002181661564992912,5.343806159107776,10.003631439826329,-49.0
1773079148.8580098,0.0006816460254094207,0.9431695802213736,-7.238855872496204,0.46553036035106454,1.1588737460460956,9.788031436504443,0.0,0.0,-0.002181661564992912,5.343806159107776,10.003631439826329,-49.0
1773079148.9267461,0.0006816460254094207,0.9431695802213736,-7.238855872496204,0.4672841414360727,1.1546339700868282,9.785344831276683,0.0007625441920981415,-0.0013410257071290814,0.001090830782496456,5.526101180464612,10.666522664076968,-49.75
1773079148.9585662,0.0006816460254094207,0.9431695802213736,-7.238855872496204,0.46522588832815265,1.1526994243075208,9.773521590386997,0.002103569899227223,-0.00057848151503094,0.002181661564992912,5.526101180464612,10.666522664076968,-49.75
1773079148.9881356,0.0006816460254094207,0.9431695802213736,-7.238855872496204,0.46522588832815265,1.1526994243075208,9.773521590386997,0.002103569899227223,-0.00057848151503094,0.002181661564992912,5.526101180464612,10.666522664076968,-49.75
1773079149.0461338,0.0006816460254094207,0.9431695802213736,-7.238855872496204,0.46385614387702556,1.1514120057016841,9.765653355649166,-0.00057848151503094,-0.002103569899227223,-0.001090830782496456,6.790114284745533,9.60589684777505,-50.1875
1773079149.068893,0.0006816460254094207,0.9431695802213736,-7.238855872496204,0.463831572006033,1.1537806178298826,9.7637622450324,0.00028924075751547,0.0010517849496136115,0.002181661564992912,6.790114284745533,9.60589684777505,-50.1875
1773079149.1173372,0.0006816460254094207,0.9431695802213736,-7.238855872496204,0.46615361676916345,1.1512445501529083,9.762503732042031,-0.0013410257071290814,-0.0007625441920981415,0.001090830782496456,5.887678211874051,10.567089016064148,-49.75
1773079149.171085,0.0006816460254094207,0.9431695802213736,-7.238855872496204,0.46615361676916345,1.1512445501529083,9.762503732042031,-0.0013410257071290814,-0.0007625441920981415,0.001090830782496456,5.887678211874051,10.567089016064148,-49.75
1773079149.295134,0.0006816460254094207,0.9431695802213736,-7.238855872496204,0.4734299144616734,1.1529185114903746,9.757763729576922,0.0,0.0,0.001090830782496456,6.1889924047152505,10.484227642720132,-49.375
1773079149.3268964,-0.015079805795151165,1.0620540686684476,-8.123990735280541,0.4766535590420406,1.1530092250831148,9.761856898721538,0.0,0.0,0.0,6.1889924047152505,10.484227642720132,-49.375
1773079149.3749573,0.0006816460254094207,0.9431695802213736,-7.238855872496204,0.47879885849980547,1.1530695939657463,9.764580857063585,0.0018143291417117532,-0.0016302664646445516,0.001090830782496456,5.887678211874051,10.567089016064148,-49.375
1773079149.4410205,0.0006816460254094207,0.9431695802213736,-7.238855872496204,0.4802265313243829,1.153109768782773,9.76639362091161,0.0016302664646445516,0.001814329141711753,-0.001090830782496456,5.887678211874051,10.567089016064148,-49.375
1773079149.479745,0.0006816460254094207,0.9431695802213736,-7.238855872496204,0.4802265313243829,1.153109768782773,9.76639362091161,0.0016302664646445516,0.001814329141711753,-0.001090830782496456,5.887678211874051,10.567089016064148,-49.375
1773079149.5169268,0.0006816460254094207,0.9431695802213736,-7.238855872496204,0.47795125681201406,1.1540234824349065,9.76759999500257,-0.00028924075751547,-0.0010517849496136115,0.001090830782496456,6.122703306040037,10.243176288447172,-50.0625
1773079149.5538075,0.0006816460254094207,0.9431695802213736,-7.238855872496204,0.47643708704051424,1.154631548663551,9.775093046898661,0.002392810656742693,0.0004733034345826715,0.001090830782496456,6.122703306040037,10.243176288447172,-50.0625
1773079149.5833626,0.0006816460254094207,0.9431695802213736,-7.238855872496204,0.4722040491429911,1.1559231877063536,9.780079589232637,-0.00018406267706720146,0.003444595606356305,0.0,5.887678211874051,10.567089016064148,-50.0625
1773079149.6165242,0.0006816460254094207,0.9431695802213736,-7.238855872496204,0.46938700970832103,1.156782759060785,9.780052965745249,0.0004733034345826715,-0.002392810656742693,-0.001090830782496456,5.887678211874051,10.567089016064148,-50.0625
1773079149.643248,0.0006816460254094207,0.9431695802213736,-7.238855872496204,0.4707376762619152,1.1564678164349338,9.776690136404477,0.00028924075751547,0.0010517849496136115,-0.002181661564992912,6.666575358806313,10.80663386468499,-49.75
1773079149.7329938,0.0006816460254094207,0.9431695802213736,-7.238855872496204,0.4716365297653981,1.1562582256355693,9.76776198762882,0.0010517849496136115,-0.00028924075751547,0.0,6.666575358806313,10.80663386468499,-49.75
1773079149.7622588,0.0006816460254094207,0.9431695802213736,-7.238855872496204,0.4722347067311144,1.156118745299875,9.755130180937938,0.00028924075751547,0.0010517849496136115,0.001090830782496456,5.244372511094956,9.64205440841689,-50.5625
1773079149.8054733,0.0006816460254094207,0.9431695802213736,-7.238855872496204,0.4735197645799085,1.1592512975235423,9.75341407810632,-0.0016302664646445516,-0.001814329141711753,-0.001090830782496456,5.244372511094956,9.64205440841689,-50.5625
1773079149.8387673,0.0006816460254094207,0.9431695802213736,-7.238855872496204,0.4735197645799085,1.1592512975235423,9.75341407810632,-0.0016302664646445516,-0.001814329141711753,-0.001090830782496456,5.244372511094956,9.64205440841689,-50.5625
1773079149.8683329,0.0006816460254094207,0.9431695802213736,-7.238855872496204,0.47760033105221894,1.1604489982753075,9.762307365963963,0.0013410257071290814,0.0007625441920981415,0.002181661564992912,5.705383190517215,9.904197791813509,-50.5625
1773079149.895803,0.0006816460254094207,0.9431695802213736,-7.238855872496204,0.4794289246964428,1.1580206799174384,9.768225749688689,0.0016302664646445516,0.001814329141711753,0.0,5.705383190517215,9.904197791813509,-50.5625
1773079149.9096737,0.0006816460254094207,0.9431695802213736,-7.238855872496204,0.4794289246964428,1.1580206799174384,9.768225749688689,0.0016302664646445516,0.001814329141711753,0.0,5.705383190517215,9.904197791813509,-50.5625
1773079149.9375405,0.0006816460254094207,0.9431695802213736,-7.238855872496204,0.4774204585109698,1.1572916389365546,9.768819256237498,-0.00057848151503094,-0.002103569899227223,0.0,5.821389113198838,10.326037661791188,-49.75
1773079149.9512553,0.0006816460254094207,0.9431695802213736,-7.238855872496204,0.4705200748028099,1.161805800657041,9.769214228215827,0.0,0.0,-0.001090830782496456,5.821389113198838,10.326037661791188,-49.75
1773079149.9678373,0.0006816460254094207,0.9431695802213736,-7.238855872496204,0.4705200748028099,1.161805800657041,9.769214228215827,0.0,0.0,-0.001090830782496456,5.821389113198838,10.326037661791188,-49.75
1773079149.994463,0.0006816460254094207,0.9431695802213736,-7.238855872496204,0.4659279465273662,1.1648099248555344,9.769477077655278,0.0010517849496136115,-0.00028924075751547,-0.001090830782496456,5.821389113198838,10.326037661791188,-49.75
1773079150.0117397,0.0006816460254094207,0.9431695802213736,-7.238855872496204,0.46609731128646703,1.1659221581911812,9.769652001021013,0.00028924075751547,0.0010517849496136115,-0.001090830782496456,5.907263735345595,9.459759387060053,-50.5625
1773079150.0280502,0.0006816460254094207,0.9431695802213736,-7.238855872496204,0.46609731128646703,1.1659221581911812,9.769652001021013,0.00028924075751547,0.0010517849496136115,-0.001090830782496456,5.907263735345595,9.459759387060053,-50.5625
1773079150.0458992,0.0006816460254094207,0.9431695802213736,-7.238855872496204,0.4662100216417203,1.1666623370515936,9.769768410566888,0.0013410257071290814,0.0007625441920981415,0.001090830782496456,5.907263735345595,9.459759387060053,-50.5625
1773079150.0606596,0.0006816460254094207,0.9431695802213736,-7.238855872496204,0.46628502912408426,1.1671549178148586,9.769845879819288,0.0010517849496136115,-0.00028924075751547,-0.002181661564992912,5.907263735345595,9.459759387060053,-50.5625
1773079150.088406,0.0006816460254094207,0.9431695802213736,-7.238855872496204,0.46628502912408426,1.1671549178148586,9.769845879819288,0.0010517849496136115,-0.00028924075751547,-0.002181661564992912,5.907263735345595,9.459759387060053,-50.5625
1773079150.104937,0.0006816460254094207,0.9431695802213736,-7.238855872496204,0.4654479680055245,1.1642573499813489,9.76989743474137,-0.00028924075751547,-0.0010517849496136115,-0.002181661564992912,5.128366588413333,9.22021453843921,-50.0625
1773079150.1230123,0.0006816460254094207,0.9431695802213736,-7.238855872496204,0.4654479680055245,1.1642573499813489,9.76989743474137,-0.00028924075751547,-0.0010517849496136115,-0.002181661564992912,5.128366588413333,9.22021453843921,-50.0625
1773079150.140596,0.0006816460254094207,0.9431695802213736,-7.238855872496204,0.46811628801068306,1.1614420731959176,9.769931743966112,0.002392810656742693,0.0004733034345826715,0.0,5.128366588413333,9.22021453843921,-50.0625
1773079150.167483,0.0006816460254094207,0.9431695802213736,-7.238855872496204,0.46989202516702855,1.1595685379439151,9.763264352957279,0.0010517849496136115,-0.00028924075751547,0.0,5.128366588413333,9.22021453843921,-50.0625
1773079150.1975696,0.0006816460254094207,0.9431695802213736,-7.238855872496204,0.47107375840829274,1.1583217211624677,9.768862613842495,0.0010517849496136115,-0.00028924075751547,-0.001090830782496456,7.213460660375329,10.202498973350476,-50.0625
1773079150.21419,0.0006816460254094207,0.9431695802213736,-7.238855872496204,0.47107375840829274,1.1583217211624677,9.768862613842495,0.0010517849496136115,-0.00028924075751547,-0.001090830782496456,7.213460660375329,10.202498973350476,-50.0625
1773079150.2414272,0.0006816460254094207,0.9431695802213736,-7.238855872496204,0.4718601886795288,1.1574919785222704,9.772588193924935,0.0010517849496136115,-0.00028924075751547,0.001090830782496456,7.213460660375329,10.202498973350476,-50.0625
1773079150.2598765,0.0006816460254094207,0.9431695802213736,-7.238855872496204,0.4700451521712444,1.1610521466532107,9.775067525852343,0.00057848151503094,0.002103569899227223,0.001090830782496456,7.213460660375329,10.202498973350476,-50.0625
1773079150.286721,0.0006816460254094207,0.9431695802213736,-7.238855872496204,0.472062640479242,1.1625344210144832,9.77671749355408,0.0004733034345826715,-0.002392810656742693,0.001090830782496456,5.459812081789399,10.425471309804008,-49.375
1773079150.30634,0.0006816460254094207,0.9431695802213736,-7.238855872496204,0.4734052564113934,1.1635208580438205,9.77781552862824,-0.0013410257071290814,-0.0007625441920981415,-0.001090830782496456,5.459812081789399,10.425471309804008,-49.375
1773079150.3212483,0.0006816460254094207,0.9431695802213736,-7.238855872496204,0.4734052564113934,1.1635208580438205,9.77781552862824,-0.0013410257071290814,-0.0007625441920981415,-0.001090830782496456,5.459812081789399,10.425471309804008,-49.375
1773079150.33908,0.0006816460254094207,0.9431695802213736,-7.238855872496204,0.4742987523162375,1.1641773208676212,9.778546258704237,-0.00028924075751547,-0.0010517849496136115,0.0,5.459812081789399,10.425471309804008,-49.375
1773079150.3559349,0.0006816460254094207,0.9431695802213736,-7.238855872496204,0.4716679890309334,1.1655011673038747,9.782377663114344,0.0,0.0,0.0,5.887678211874051,10.567089016064148,-49.75
1773079150.373176,0.0006816460254094207,0.9431695802213736,-7.238855872496204,0.4716679890309334,1.1655011673038747,9.782377663114344,0.0,0.0,0.0,5.887678211874051,10.567089016064148,-49.75
1773079150.3995593,0.0006816460254094207,0.9431695802213736,-7.238855872496204,0.46903026769193046,1.1631567974898929,9.784927419949678,-0.0010517849496136115,0.00028924075751547,-0.001090830782496456,5.887678211874051,10.567089016064148,-49.75
1773079150.4325016,0.0006816460254094207,0.9431695802213736,-7.238855872496204,0.46903026769193046,1.1631567974898929,9.784927419949678,-0.0010517849496136115,0.00028924075751547,-0.001090830782496456,5.887678211874051,10.567089016064148,-49.75
1773079150.4473956,0.0006816460254094207,0.9431695802213736,-7.238855872496204,0.4705002684350767,1.1607096678068303,9.779934031226304,0.0013410257071290814,0.0007625441920981415,0.001090830782496456,6.368274414767853,9.721902770456673,-50.1875
1773079150.46879,0.0006816460254094207,0.9431695802213736,-7.238855872496204,0.47147853750865626,1.1590811303389819,9.776610986810706,0.0004733034345826715,-0.002392810656742693,0.0,6.368274414767853,9.721902770456673,-50.1875
1773079150.4925632,0.0006816460254094207,0.9431695802213736,-7.238855872496204,0.4721295646491419,1.1579973568460844,9.774399537872963,-0.0004733034345826715,0.002392810656742693,0.0,6.368274414767853,9.721902770456673,-50.1875
1773079150.5213327,0.0006816460254094207,0.9431695802213736,-7.238855872496204,0.47256281593868543,1.1572761176931041,9.776272955015719,0.0016302664646445516,0.001814329141711753,0.0,5.605949542504395,9.54262076040407,-49.0
1773079150.5355816,0.0006816460254094207,0.9431695802213736,-7.238855872496204,0.47256281593868543,1.1572761176931041,9.776272955015719,0.0016302664646445516,0.001814329141711753,0.0,5.605949542504395,9.54262076040407,-49.0
1773079150.553986,0.0006816460254094207,0.9431695802213736,-7.238855872496204,0.47285113983214255,1.156796141093565,9.777519693196782,-0.00028924075751547,-0.0010517849496136115,0.0,5.605949542504395,9.54262076040407,-49.0
1773079150.5994058,0.0006816460254094207,0.9431695802213736,-7.238855872496204,0.4739299939226338,1.1597020968572362,9.778349383529301,0.0,0.0,0.0,5.605949542504395,9.54262076040407,-49.0
1773079150.6417694,0.0006816460254094207,0.9431695802213736,-7.238855872496204,0.47464795926826586,1.1616359779563066,9.775556421470025,-0.0013410257071290814,-0.0007625441920981415,-0.002181661564992912,6.006697383358414,9.821336418469492,-49.375
1773079150.6730642,0.0006816460254094207,0.9431695802213736,-7.238855872496204,0.47512575718558564,1.1629229542248707,9.777042848126326,-0.0013410257071290814,-0.0007625441920981415,0.002181661564992912,6.006697383358414,9.821336418469492,-49.375
1773079150.6936681,0.0006816460254094207,0.9431695802213736,-7.238855872496204,0.47455674860202507,1.1605540477261584,9.77803204846162,-0.0007625441920981415,0.0013410257071290814,0.001090830782496456,6.570154959596233,9.277464365703217,-50.5625
1773079150.7097068,0.0006816460254094207,0.9431695802213736,-7.238855872496204,0.47595203526627666,1.1654283165716344,9.778690350234667,-0.0013410257071290814,-0.0007625441920981415,0.0,6.570154959596233,9.277464365703217,-50.5625
1773079150.7281704,0.0006816460254094207,0.9431695802213736,-7.238855872496204,0.47595203526627666,1.1654283165716344,9.778690350234667,-0.0013410257071290814,-0.0007625441920981415,0.0,6.570154959596233,9.277464365703217,-50.5625
1773079150.7491136,0.0006816460254094207,0.9431695802213736,-7.238855872496204,0.47599360519477835,1.1654467132101731,9.779128442710917,-0.00057848151503094,-0.002103569899227223,0.0,6.570154959596233,9.277464365703217,-50.5625
1773079150.7772388,0.0006816460254094207,0.9431695802213736,-7.238855872496204,0.47602126951782975,1.1654589559676167,9.776074876652729,-0.0019195072221600217,-0.0028661140913253647,-0.002181661564992912,5.343806159107776,10.003631439826329,-50.5625
1773079150.816744,0.0006816460254094207,0.9431695802213736,-7.238855872496204,0.47515270205560534,1.1622417285569604,9.774042762551572,0.0,0.0,-0.001090830782496456,5.343806159107776,10.003631439826329,-50.5625
1773079150.8569338,0.0006816460254094207,0.9431695802213736,-7.238855872496204,0.47457468011202925,1.1601006996539536,9.772690413317454,0.00028924075751547,0.0010517849496136115,0.001090830782496456,5.343806159107776,10.003631439826329,-50.5625
1773079150.8887124,0.0006816460254094207,0.9431695802213736,-7.238855872496204,0.4741900129655075,1.1586758688358623,9.775135551716199,-0.00028924075751547,-0.0010517849496136115,-0.002181661564992912,7.050750924991529,11.025086684182174,-48.5625
1773079150.9098394,0.0006816460254094207,0.9431695802213736,-7.238855872496204,0.4771593961054856,1.1568406820826413,9.776762764006579,-0.0013410257071290814,-0.0007625441920981415,-0.001090830782496456,7.050750924991529,11.025086684182174,-48.5625
1773079150.9349427,0.0006816460254094207,0.9431695802213736,-7.238855872496204,0.4771593961054856,1.1568406820826413,9.776762764006579,-0.0013410257071290814,-0.0007625441920981415,-0.001090830782496456,7.050750924991529,11.025086684182174,-48.5625
1773079150.9814749,0.0006816460254094207,0.9431695802213736,-7.238855872496204,0.47913548741495793,1.1556193857987522,9.774500543901354,-0.00086772227254641,-0.003155354848840835,-0.002181661564992912,5.821389113198838,10.326037661791188,-50.5625
1773079151.0115323,0.0006816460254094207,0.9431695802213736,-7.238855872496204,0.4772251792780508,1.1556936045247819,9.772995061691981,-0.0010517849496136115,0.00028924075751547,-0.004363323129985824,5.821389113198838,10.326037661791188,-50.5625
1773079151.043891,0.0006816460254094207,0.9431695802213736,-7.238855872496204,0.47272851572350455,1.1566299740180614,9.771993180098981,0.0,0.0,0.001090830782496456,6.967889551647512,10.723772491340974,-50.5625
1773079151.0765133,0.0006816460254094207,0.9431695802213736,-7.238855872496204,0.4729614111879518,1.1563661396957219,9.771326439090592,-0.002971292171773633,-0.0025768733338098946,-0.002181661564992912,6.967889551647512,10.723772491340974,-50.5625
1773079151.1152701,0.0006816460254094207,0.9431695802213736,-7.238855872496204,0.4740033782781132,1.1594159357304021,9.774227842104812,0.0,0.0,0.001090830782496456,6.967889551647512,10.723772491340974,-50.5625
1773079151.1377292,0.0006816460254094207,0.9431695802213736,-7.238855872496204,0.47792217056605507,1.1605585631628432,9.7795038051073,-0.00028924075751547,-0.0010517849496136115,-0.001090830782496456,4.921966289130096,10.119637362507952,-50.0625
1773079151.1613255,0.0006816460254094207,0.9431695802213736,-7.238855872496204,0.4805300830579023,1.1613189689551482,9.779669787841769,0.00057848151503094,0.002103569899227223,0.002181661564992912,4.921966289130096,10.119637362507952,-50.0625
1773079151.2082753,0.0006816460254094207,0.9431695802213736,-7.238855872496204,0.4805300830579023,1.1613189689551482,9.779669787841769,0.00057848151503094,0.002103569899227223,0.002181661564992912,4.921966289130096,10.119637362507952,-50.0625
1773079151.2472525,0.0006816460254094207,0.9431695802213736,-7.238855872496204,0.4781532670997762,1.1594866134468478,9.779780247497408,-0.0018143291417117532,0.0016302664646445516,0.002181661564992912,4.159641416866638,9.940355352455349,-50.1875
1773079151.2800794,0.0006816460254094207,0.9431695802213736,-7.238855872496204,0.47657152263041724,1.1582672013248259,9.779853757164322,0.00028924075751547,0.0010517849496136115,0.0,4.159641416866638,9.940355352455349,-50.1875
1773079151.3046615,0.0006816460254094207,0.9431695802213736,-7.238855872496204,0.47657152263041724,1.1582672013248259,9.779853757164322,0.00028924075751547,0.0010517849496136115,0.0,4.159641416866638,9.940355352455349,-50.1875
1773079151.3334923,0.0006816460254094207,0.9431695802213736,-7.238855872496204,0.47551888935530223,1.1574556961793463,9.779902677026495,0.002392810656742693,0.0004733034345826715,0.001090830782496456,6.484280337449476,10.143742640434352,-50.5625
1773079151.35007,0.0006816460254094207,0.9431695802213736,-7.238855872496204,0.4715929988404227,1.1578026263303205,9.7799352326483,-0.00028924075751547,-0.0010517849496136115,0.0,6.484280337449476,10.143742640434352,-50.5625
1773079151.3808525,0.0006816460254094207,0.9431695802213736,-7.238855872496204,0.4722057373868156,1.1571465267101457,9.776611786343624,0.00057848151503094,0.002103569899227223,0.0,5.705383190517215,9.904197791813509,-49.75
1773079151.4010108,0.0006816460254094207,0.9431695802213736,-7.238855872496204,0.4722057373868156,1.1571465267101457,9.776611786343624,0.00057848151503094,0.002103569899227223,0.0,5.705383190517215,9.904197791813509,-49.75
1773079151.4170105,0.0006816460254094207,0.9431695802213736,-7.238855872496204,0.47261350804470204,1.1567098997420322,9.774400069953188,0.00028924075751547,0.0010517849496136115,0.002181661564992912,5.705383190517215,9.904197791813509,-49.75
1773079151.4311182,0.0006816460254094207,0.9431695802213736,-7.238855872496204,0.47288487486242875,1.1564193293721956,9.772928197401844,0.0,0.0,0.001090830782496456,5.705383190517215,9.904197791813509,-49.75
1773079151.4509869,0.0006816460254094207,0.9431695802213736,-7.238855872496204,0.47288487486242875,1.1564193293721956,9.772928197401844,0.0,0.0,0.001090830782496456,5.705383190517215,9.904197791813509,-49.75
1773079151.4812138,0.0006816460254094207,0.9431695802213736,-7.238855872496204,0.47306546644825986,1.1562259580369532,9.76525845924618,0.002103569899227223,-0.00057848151503094,0.0,6.122703306040037,10.243176288447172,-49.75
