timestamp,yaw,pitch,roll,ax,ay,az,gx,gy,gz,mx,my,mz
1772750459.3143086,-0.10416337470949219,1.3809110688700008,-8.626560145561328,-0.23533432113970057,-1.4640999471249398,9.737382070730934,0.0,0.004363323129985824,-0.001090830782496456,-3.5625,63.0,-84.5
1772750459.6553335,-0.10407882670180119,1.3809110688700008,-8.619505654942198,-0.23203216645620126,-1.4608041579050506,9.73490117698216,0.0,-0.002181661564992912,0.001090830782496456,-2.5,63.375,-84.5
1772750459.9438486,-0.10407882670180119,1.3809110688700008,-8.619505654942198,-0.2301765240560882,-1.4588033780392702,9.757967289636083,-0.001090830782496456,0.001090830782496456,0.0,-3.5625,63.0,-85.5625
1772750459.9718528,-0.10407882670180119,1.3809110688700008,-8.619505654942198,-0.2301765240560882,-1.4588033780392702,9.757967289636083,-0.001090830782496456,0.001090830782496456,0.0,-3.5625,63.0,-85.5625
1772750460.0114868,-0.10407882670180119,1.3809110688700008,-8.619505654942198,-0.2356494243399454,-1.4538987994109809,9.750183404732814,-0.002181661564992912,-0.001090830782496456,-0.002181661564992912,-3.1875,63.0,-84.0625
1772750460.03387,-0.10407882670180119,1.3809110688700008,-8.619505654942198,-0.23710474049734814,-1.455939719162884,9.746776942093604,-0.001090830782496456,-0.002181661564992912,-0.002181661564992912,-3.1875,63.0,-84.0625
1772750460.0646245,-0.10407882670180119,1.3809110688700008,-8.619505654942198,-0.2347281254358336,-1.457297928459208,9.751200202674529,0.0,0.0,-0.001090830782496456,-2.1875,62.6875,-84.5
1772750460.1553664,-0.10407882670180119,1.3809110688700008,-8.619505654942198,-0.23314651466092545,-1.4582018015737197,9.754143833180075,0.001090830782496456,0.003272492347489368,0.0,-2.1875,62.6875,-84.5
1772750460.1784697,-0.10407882670180119,1.3809110688700008,-8.619505654942198,-0.23878419377261284,-1.4621484307418224,9.75610278639901,-0.001090830782496456,-0.001090830782496456,0.0,-4.0,62.6875,-85.1875
1772750460.2177856,-0.10407882670180119,1.3809110688700008,-8.619505654942198,-0.2425360062444387,-1.4647748683664583,9.754061336175951,0.0,0.0,-0.001090830782496456,-4.0,62.6875,-85.1875
1772750460.2781672,-0.10407882670180119,1.3809110688700008,-8.619505654942198,-0.241687683826628,-1.4665227332664228,9.756047885564318,0.0,-0.002181661564992912,-0.002181661564992912,-2.5,62.25,-84.0625
1772750460.3050933,-0.10407882670180119,1.3809110688700008,-8.619505654942198,-0.241687683826628,-1.4665227332664228,9.756047885564318,0.0,-0.002181661564992912,-0.002181661564992912,-2.5,62.25,-84.0625
1772750460.3458192,-0.10407882670180119,1.3809110688700008,-8.619505654942198,-0.24074743361921153,-1.4684600041674662,9.740416990033035,-0.001090830782496456,0.0,-0.001090830782496456,-3.1875,63.0,-85.25
1772750460.3756862,-0.10407882670180119,1.3809110688700008,-8.619505654942198,-0.24074743361921153,-1.4684600041674662,9.740416990033035,-0.001090830782496456,0.0,-0.001090830782496456,-3.1875,63.0,-85.25
1772750460.4146588,-0.10407882670180119,1.3809110688700008,-8.619505654942198,-0.24049740872420466,-1.4689751499763295,9.733587278794262,0.0,-0.002181661564992912,0.001090830782496456,-3.1875,63.0,-85.25
1772750460.467698,-0.10407882670180119,1.3809110688700008,-8.619505654942198,-0.2369859082422193,-1.4693179737575721,9.729042182257732,-0.001090830782496456,-0.002181661564992912,0.0,-3.1875,62.6875,-83.5625
1772750460.5221624,-0.10407882670180119,1.3809110688700008,-8.619505654942198,-0.23309388678055554,-1.469697947367432,9.730694783335066,0.0,0.0,0.0,-3.5625,62.6875,-84.5
1772750460.577423,-0.10407882670180119,1.3809110688700008,-8.619505654942198,-0.23540405879879922,-1.469798987347175,9.727117258840929,-0.002181661564992912,0.004363323129985824,0.0,-3.5625,62.6875,-84.5
1772750460.629192,-0.10407882670180119,1.3809110688700008,-8.619505654942198,-0.23025122905598927,-1.4698662283250035,9.731426679668287,0.001090830782496456,0.001090830782496456,0.001090830782496456,-4.375,63.0,-84.5
1772750460.6426334,-0.10407882670180119,1.3809110688700008,-8.619505654942198,-0.2335123018376678,-1.4699109764446172,9.734294551089508,-0.001090830782496456,0.0,0.001090830782496456,-4.375,63.0,-84.5
1772750460.660148,-0.10407882670180119,1.3809110688700008,-8.619505654942198,-0.2335123018376678,-1.4699109764446172,9.734294551089508,-0.001090830782496456,0.0,0.001090830782496456,-4.375,63.0,-84.5
1772750460.6729445,-0.10407882670180119,1.3809110688700008,-8.619505654942198,-0.2323373976379856,-1.4665956441110317,9.736203087484109,0.0,0.002181661564992912,-0.001090830782496456,-4.375,63.0,-84.5
1772750460.6852949,-0.10407882670180119,1.3809110688700008,-8.619505654942198,-0.23490062372495635,-1.4643893274777193,9.737473197134966,0.0,0.0,-0.001090830782496456,-2.875,62.6875,-84.875
1772750460.6985064,-0.10407882670180119,1.3809110688700008,-8.619505654942198,-0.23490062372495635,-1.4643893274777193,9.737473197134966,0.0,0.0,-0.001090830782496456,-2.875,62.6875,-84.875
1772750460.7115583,-0.10407882670180119,1.3809110688700008,-8.619505654942198,-0.23326131034540448,-1.466266160111741,9.741663552626877,-0.001090830782496456,0.001090830782496456,0.0,-2.875,62.6875,-84.875
1772750460.724955,-0.10407882670180119,1.3809110688700008,-8.619505654942198,-0.23551547731096242,-1.4675151712640881,9.741107075690087,0.0,0.001090830782496456,0.0,-2.875,62.6875,-84.875
1772750460.7394218,-0.10407882670180119,1.3809110688700008,-8.619505654942198,-0.23551547731096242,-1.4675151712640881,9.741107075690087,0.0,0.001090830782496456,0.0,-2.875,62.6875,-84.875
1772750460.7578623,-0.10407882670180119,1.3809110688700008,-8.619505654942198,-0.23367048853852695,-1.4683463742336065,9.740736746504908,0.0,0.002181661564992912,0.0,-3.5625,62.6875,-85.6875
1772750460.7718403,-0.10407882670180119,1.3809110688700008,-8.619505654942198,-0.22909755741302676,-1.4688995305246753,9.7371451848617,0.0,-0.001090830782496456,0.0,-3.5625,62.6875,-85.6875
1772750460.81623,-0.10407882670180119,1.3809110688700008,-8.619505654942198,-0.22605432283199414,-1.4692676498572208,9.734755040708515,-0.001090830782496456,0.0,0.0,-3.1875,64.0625,-84.5
1772750460.8368812,-0.10407882670180119,1.3809110688700008,-8.619505654942198,-0.22605432283199414,-1.4692676498572208,9.734755040708515,-0.001090830782496456,0.0,0.0,-3.1875,64.0625,-84.5
1772750460.861116,-0.10407882670180119,1.3809110688700008,-8.619505654942198,-0.22737419592079405,-1.4661675174535482,9.739854649888871,0.0,-0.001090830782496456,0.0,-3.1875,64.0625,-84.5
1772750460.912747,-0.10407882670180119,1.3809110688700008,-8.619505654942198,-0.22825255671744193,-1.4641044139696522,9.74324838283203,0.0,0.0,-0.001090830782496456,-3.1875,64.0625,-84.5
1772750460.952109,-0.10407882670180119,1.3809110688700008,-8.619505654942198,-0.2288370960156781,-1.4627314416474952,9.742161762487903,0.002181661564992912,0.0,0.001090830782496456,-2.875,63.0,-84.5
1772750460.9863014,-0.10407882670180119,1.3809110688700008,-8.619505654942198,-0.22922610038892244,-1.465162855611525,9.73809351707991,0.003272492347489368,0.001090830782496456,-0.001090830782496456,-2.875,63.0,-84.5
1772750461.0435278,-0.10407882670180119,1.3809110688700008,-8.619505654942198,-0.23283009016117237,-1.466780934443913,9.732041033498852,0.0,-0.001090830782496456,-0.002181661564992912,-3.1875,63.375,-84.875
1772750461.0681925,-0.10407882670180119,1.3809110688700008,-8.619505654942198,-0.23522850509540105,-1.4678577478317425,9.731358284993648,0.0,0.0,0.0,-3.1875,63.375,-84.875
1772750461.1424258,-0.10407882670180119,1.3809110688700008,-8.619505654942198,-0.23347951173476056,-1.4652292434052299,9.727558811782917,0.001090830782496456,0.001090830782496456,-0.001090830782496456,-2.5,62.25,-84.5
1772750461.171608,-0.10407882670180119,1.3809110688700008,-8.619505654942198,-0.2323155761907903,-1.4634800030717041,9.72837541651139,0.001090830782496456,0.0,0.002181661564992912,-2.5,62.25,-84.5
1772750461.259701,-0.10407882670180119,1.3809110688700008,-8.619505654942198,-0.23154099008829004,-1.465661014877357,9.732263969543437,0.0,-0.002181661564992912,-0.002181661564992912,-3.5625,63.0,-84.875
1772750461.3008838,-0.10407882670180119,1.3809110688700008,-8.619505654942198,-0.23102551168976984,-1.4671124538705207,9.7381968698556,-0.001090830782496456,0.0,0.0,-3.5625,63.0,-84.875
1772750461.374223,-0.10407882670180119,1.3809110688700008,-8.619505654942198,-0.23068246657382566,-1.4680783703068352,9.745490260445823,0.002181661564992912,0.0,-0.001090830782496456,-2.5,62.25,-85.6875
1772750461.394681,-0.10407882670180119,1.3809110688700008,-8.619505654942198,-0.23068246657382566,-1.4680783703068352,9.745490260445823,0.002181661564992912,0.0,-0.001090830782496456,-2.5,62.25,-85.6875
1772750461.43561,-0.10407882670180119,1.3809110688700008,-8.619505654942198,-0.23045417388122982,-1.468721176905209,9.750343930411107,0.0,0.0,0.0,-2.5,62.25,-85.6875
1772750461.483556,-0.10407882670180119,1.3809110688700008,-8.619505654942198,-0.23364735935182315,-1.4691489575158065,9.746883770139318,-0.001090830782496456,-0.001090830782496456,0.0,-2.1875,62.6875,-85.25
1772750461.5293806,-0.10407882670180119,1.3809110688700008,-8.619505654942198,-0.23577238861228408,-1.4694336407335367,9.737890848716326,-0.001090830782496456,-0.001090830782496456,-0.001090830782496456,-2.1875,62.6875,-85.25
1772750461.5566964,-0.10407882670180119,1.3809110688700008,-8.619505654942198,-0.2371865718469886,-1.4696230942348163,9.73190615996684,0.001090830782496456,0.0,0.0,-3.1875,62.25,-84.875
1772750461.6223183,-0.10407882670180119,1.3809110688700008,-8.619505654942198,-0.23478258328490326,-1.4697491734235835,9.73461363987205,0.001090830782496456,-0.002181661564992912,-0.001090830782496456,-3.1875,62.25,-84.875
1772750461.6664903,-0.10407882670180119,1.3809110688700008,-8.619505654942198,-0.2321180883986772,-1.4698889150841836,9.739840648175262,-0.001090830782496456,-0.001090830782496456,0.0,-3.5625,63.375,-84.0625
1772750461.7215037,-0.10407882670180119,1.3809110688700008,-8.619505654942198,-0.2321180883986772,-1.4698889150841836,9.739840648175262,-0.001090830782496456,-0.001090830782496456,0.0,-3.5625,63.375,-84.0625
1772750461.7464018,-0.10407882670180119,1.3809110688700008,-8.619505654942198,-0.23475467587604135,-1.469926074229424,9.743239064848034,0.0,0.0,-0.001090830782496456,-2.5,62.6875,-84.875
1772750461.794089,-0.10407882670180119,1.3809110688700008,-8.619505654942198,-0.23475467587604135,-1.469926074229424,9.743239064848034,0.0,0.0,-0.001090830782496456,-2.5,62.6875,-84.875
1772750461.837982,-0.10407882670180119,1.3809110688700008,-8.619505654942198,-0.23650929538961524,-1.4699508032254867,9.735465338059003,0.0,0.002181661564992912,-0.001090830782496456,-3.5625,63.375,-83.6875
1772750461.8614433,-0.10407882670180119,1.3809110688700008,-8.619505654942198,-0.23433186336819503,-1.4699672600961253,9.740327344841079,0.0,0.0,0.0,-3.5625,63.375,-83.6875
1772750461.9471164,-0.10407882670180119,1.3809110688700008,-8.619505654942198,-0.2328828066814493,-1.4666331002523807,9.743562956042377,-0.001090830782496456,0.0,0.001090830782496456,-2.5,63.0,-84.0625
1772750461.9650319,-0.10407882670180119,1.3809110688700008,-8.619505654942198,-0.22857336393612446,-1.4644142541213745,9.745716219152694,0.0,0.002181661564992912,0.0,-2.5,63.0,-84.0625
1772750462.0103152,-0.10407882670180119,1.3809110688700008,-8.619505654942198,-0.22936817800840653,-1.465300076187041,9.739186461032844,0.0,-0.001090830782496456,0.0,-2.5,63.6875,-84.5625
1772750462.1096776,-0.10407882670180119,1.3809110688700008,-8.619505654942198,-0.22936817800840653,-1.465300076187041,9.739186461032844,0.0,-0.001090830782496456,0.0,-2.5,63.6875,-84.5625
1772750462.1614242,-0.10407882670180119,1.3809110688700008,-8.619505654942198,-0.22957952952250865,-1.4668722532040648,9.736113487197864,-0.002181661564992912,0.004363323129985824,0.0,-3.1875,63.0,-84.5
1772750462.2655528,-0.10407882670180119,1.3809110688700008,-8.619505654942198,-0.2297201815941925,-1.467918519446526,9.734068457438052,-0.001090830782496456,0.0,-0.003272492347489368,-3.1875,63.0,-84.5
1772750462.2982981,-0.10407882670180119,1.3809110688700008,-8.619505654942198,-0.2298137839767115,-1.4619245745286855,9.736052624684696,-0.001090830782496456,-0.003272492347489368,0.0,-4.0,63.375,-84.5625
1772750462.3648012,-0.10407882670180119,1.3809110688700008,-8.619505654942198,-0.22987607531667079,-1.4545905594352952,9.737373065822737,0.001090830782496456,-0.001090830782496456,0.0,-4.0,63.375,-84.5625
1772750462.4193256,-0.10407882670180119,-1.3890277047660933,8.66939157259117,-0.23329022851586553,-1.455378157470271,9.735491483815752,0.001090830782496456,0.0,-0.001090830782496456,-2.1875,63.375,-85.0
1772750462.4800336,-0.10407882670180119,1.3809110688700008,-8.619505654942198,-0.2388798337376865,-1.4569242154258293,9.73365452113549,0.001090830782496456,0.001090830782496456,-0.001090830782496456,-2.875,63.375,-85.0
1772750462.538504,-0.10407882670180119,1.3809110688700008,-8.619505654942198,-0.24259965357282678,-1.454607988017335,9.732432042991993,0.001090830782496456,0.0,-0.001090830782496456,-2.875,63.375,-85.0
1772750462.5591664,-0.10407882670180119,1.3809110688700008,-8.619505654942198,-0.24259965357282678,-1.454607988017335,9.732432042991993,0.001090830782496456,0.0,-0.001090830782496456,-2.875,63.375,-85.0
1772750462.599432,-0.10407882670180119,1.3809110688700008,-8.619505654942198,-0.24173004041268303,-1.4530665645509375,9.73830872085811,0.0,-0.002181661564992912,0.0,-1.375,63.6875,-85.6875
1772750462.6427448,-0.10407882670180119,1.3809110688700008,-8.619505654942198,-0.24115132256882285,-1.4587309878675172,9.742219584331217,0.0,0.002181661564992912,-0.001090830782496456,-1.375,63.6875,-85.6875
1772750462.673758,-0.10407882670180119,1.3809110688700008,-8.619505654942198,-0.24076619230843582,-1.4625005983089465,9.744822220285362,0.001090830782496456,0.001090830782496456,0.0,-2.1875,63.0,-84.875
1772750462.7088337,-0.10407882670180119,1.3809110688700008,-8.619505654942198,-0.24050989242233514,-1.4650092319484098,9.746554245439498,0.0,-0.001090830782496456,0.001090830782496456,-2.1875,63.0,-84.875
1772750462.7219627,-0.10407882670180119,1.3809110688700008,-8.619505654942198,-0.24050989242233514,-1.4650092319484098,9.746554245439498,0.0,-0.001090830782496456,0.001090830782496456,-2.1875,63.0,-84.875
1772750462.764781,-0.10407882670180119,1.3809110688700008,-8.619505654942198,-0.24033932771119246,-1.4666786996121988,9.741016665416948,0.001090830782496456,-0.002181661564992912,0.002181661564992912,-3.1875,63.0,-85.6875
1772750462.8360226,-0.10407882670180119,1.3809110688700008,-8.619505654942198,-0.24015027988967702,-1.4685290778224125,9.737105144377457,0.0,-0.002181661564992912,0.0,-4.0,63.0,-84.5
1772750462.9084215,-0.10407882670180119,1.3809110688700008,-8.619505654942198,-0.2401000095878437,-1.4656760060147735,9.738073505920854,0.0,-0.004363323129985824,-0.001090830782496456,-4.0,63.0,-84.5
1772750462.9370039,-0.10407882670180119,1.3809110688700008,-8.619505654942198,-0.2401000095878437,-1.4656760060147735,9.738073505920854,0.0,-0.004363323129985824,-0.001090830782496456,-4.0,63.0,-84.5
1772750462.9652412,-0.10407882670180119,1.3809110688700008,-8.619505654942198,-0.2367214435562103,-1.4637773185976901,9.738717939710677,-0.001090830782496456,-0.001090830782496456,0.0,-3.5625,62.6875,-84.5
1772750462.99827,-0.10407882670180119,1.3809110688700008,-8.619505654942198,-0.23447304560321375,-1.4658588750386687,9.739146803199008,0.0,-0.001090830782496456,0.001090830782496456,-3.5625,62.6875,-84.5
1772750463.0294423,-0.10407882670180119,1.3809110688700008,-8.619505654942198,-0.23297676188174538,-1.467244127597631,9.739432207059773,0.002181661564992912,0.002181661564992912,-0.001090830782496456,-2.875,62.25,-85.25
1772750463.0444064,-0.10407882670180119,1.3809110688700008,-8.619505654942198,-0.23198100177969252,-1.4681659977013353,9.739622140140941,-0.001090830782496456,0.001090830782496456,0.0,-2.875,62.25,-85.25
1772750463.071851,-0.10407882670180119,1.3809110688700008,-8.619505654942198,-0.23131833455514553,-1.4654343802500673,9.739748538484768,-0.002181661564992912,0.0,0.001090830782496456,-2.1875,63.375,-85.25
1772750463.1082726,-0.10407882670180119,1.3809110688700008,-8.619505654942198,-0.23131833455514553,-1.4654343802500673,9.739748538484768,-0.002181661564992912,0.0,0.001090830782496456,-2.1875,63.375,-85.25
1772750463.1267436,-0.10407882670180119,1.3809110688700008,-8.619505654942198,-0.22753222521236804,-1.4636165193504147,9.739832655170623,0.001090830782496456,0.0,-0.001090830782496456,-2.1875,63.375,-85.25
1772750463.160328,-0.10407882670180119,1.3809110688700008,-8.619505654942198,-0.2216675000310428,-1.4624067532285328,9.739888633885414,0.001090830782496456,0.003272492347489368,0.0,-1.75,63.6875,-83.75
1772750463.1943014,-0.10407882670180119,1.3809110688700008,-8.619505654942198,-0.21776459093614375,-1.4682918908030322,9.736580775387464,0.001090830782496456,0.003272492347489368,-0.002181661564992912,-1.75,63.6875,-83.75
1772750463.2416437,-0.10407882670180119,1.3809110688700008,-8.619505654942198,-0.2185123602391591,-1.4655181607029286,9.73103432080096,-0.001090830782496456,0.0,0.0,-2.875,63.375,-85.25
1772750463.32077,-0.10407882670180119,1.3809110688700008,-8.619505654942198,-0.21934116097281686,-1.4624438575285879,9.727112963512393,0.0,0.002181661564992912,-0.001090830782496456,-2.1875,62.6875,-84.5
1772750463.3646562,-0.10407882670180119,1.3809110688700008,-8.619505654942198,-0.22290666169444318,-1.4616263598855979,9.728078709467809,0.0,0.001090830782496456,0.0,-2.1875,62.6875,-84.5
1772750463.3881564,-0.10407882670180119,1.3809110688700008,-8.619505654942198,-0.22290666169444318,-1.4616263598855979,9.728078709467809,0.0,0.001090830782496456,0.0,-2.1875,62.6875,-84.5
1772750463.4150372,-0.10407882670180119,1.3809110688700008,-8.619505654942198,-0.2252794625954327,-1.461082324336235,9.728721402613049,0.0,0.0,-0.001090830782496456,-2.875,62.6875,-84.5625
1772750463.4620903,-0.10407882670180119,1.3809110688700008,-8.619505654942198,-0.2268585350891184,-1.4607202747554093,9.729149107721852,-0.001090830782496456,0.003272492347489368,-0.001090830782496456,-2.875,62.6875,-84.5625
1772750463.4926817,-0.10407882670180119,1.3809110688700008,-8.619505654942198,-0.22790939019427073,-1.4604793348037286,9.732778852401301,0.001090830782496456,0.0,0.0,-2.875,63.375,-83.6875
1772750463.5530753,-0.10407882670180119,1.3809110688700008,-8.619505654942198,-0.2319538342352483,-1.4603189919573607,9.73519440693857,0.0,0.001090830782496456,0.0,-2.875,63.375,-83.6875
1772750463.5709093,-0.10407882670180119,1.3809110688700008,-8.619505654942198,-0.2346453665651186,-1.4602122855842499,9.73680193149961,0.0,0.002181661564992912,-0.001090830782496456,-2.875,63.375,-83.6875
1772750463.6073275,-0.10407882670180119,1.3809110688700008,-8.619505654942198,-0.23309143955694178,-1.4567961619776135,9.737871721137756,0.0,0.001090830782496456,0.0,-3.1875,63.0,-85.6875
1772750463.644914,-0.10407882670180119,1.3809110688700008,-8.619505654942198,-0.23205731849150216,-1.461212993292637,9.73858365419161,-0.001090830782496456,0.001090830782496456,0.001090830782496456,-3.1875,63.0,-85.6875
1772750463.684307,-0.10407882670180119,1.3809110688700008,-8.619505654942198,-0.2313691224743413,-1.4641523451935463,9.739057437686135,0.0,0.002181661564992912,-0.001090830782496456,-3.1875,63.0,-84.5625
1772750463.7221003,-0.10407882670180119,1.3809110688700008,-8.619505654942198,-0.230911135712574,-1.4661084510488893,9.746062958723872,0.001090830782496456,0.002181661564992912,-0.001090830782496456,-3.1875,63.0,-84.5625
1772750463.7497284,-0.10407882670180119,1.3809110688700008,-8.619505654942198,-0.2306063506386652,-1.467410217644486,9.75072505471769,0.0,0.001090830782496456,0.001090830782496456,-3.1875,63.6875,-84.5
1772750463.81859,-0.10407882670180119,1.3809110688700008,-8.619505654942198,-0.23040351957665126,-1.46827652877217,9.753827627522549,-0.002181661564992912,0.001090830782496456,-0.001090830782496456,-3.1875,63.6875,-84.5
1772750463.8747573,-0.10407882670180119,1.3809110688700008,-8.619505654942198,-0.23361364947797178,-1.4688530491503142,9.755892355066175,-0.001090830782496456,0.001090830782496456,0.001090830782496456,-2.875,62.6875,-84.5625
1772750463.901032,-0.10407882670180119,1.3809110688700008,-8.619505654942198,-0.23909506677511935,-1.4692367170218146,9.75726640818194,0.001090830782496456,-0.001090830782496456,0.0,-2.875,62.6875,-84.5625
1772750463.9597013,-0.10407882670180119,1.3809110688700008,-8.619505654942198,-0.24274288875492778,-1.4694920437044472,9.751490601766664,-0.001090830782496456,-0.003272492347489368,0.002181661564992912,-2.875,63.6875,-84.5625
1772750463.992599,-0.10407882670180119,1.3809110688700008,-8.619505654942198,-0.24274288875492778,-1.4694920437044472,9.751490601766664,-0.001090830782496456,-0.003272492347489368,0.002181661564992912,-2.875,63.6875,-84.5625
1772750464.036794,-0.10407882670180119,1.3809110688700008,-8.619505654942198,-0.23513513841169065,-1.4696619607595531,9.744301755409964,0.0,-0.002181661564992912,0.001090830782496456,-2.875,63.6875,-84.5625
1772750464.057649,-0.10407882670180119,1.3809110688700008,-8.619505654942198,-0.2300722655424061,-1.4697750386616284,9.739517658464255,-0.002181661564992912,-0.002181661564992912,-0.001090830782496456,-2.5,63.0,-84.5
1772750464.0910387,-0.10407882670180119,1.3809110688700008,-8.619505654942198,-0.23004809191121225,-1.466505179034977,9.73633389538875,0.0,0.001090830782496456,-0.001090830782496456,-2.5,63.0,-84.5
1772750464.146085,-0.10407882670180119,1.3809110688700008,-8.619505654942198,-0.23003200462968992,-1.464329123980166,9.734215136626966,0.0,0.0,0.001090830782496456,-3.5625,63.6875,-85.0
1772750464.1622608,-0.10407882670180119,1.3809110688700008,-8.619505654942198,-0.23003200462968992,-1.464329123980166,9.734215136626966,0.0,0.0,0.001090830782496456,-3.5625,63.6875,-85.0
1772750464.1821222,-0.10407882670180119,1.3809110688700008,-8.619505654942198,-0.22667618701622413,-1.4628809836493168,9.732805126339086,-0.001090830782496456,0.002181661564992912,0.0,-3.5625,63.6875,-85.0
1772750464.2145662,-0.10407882670180119,1.3809110688700008,-8.619505654942198,-0.22444292788140163,-1.4619172624359242,9.731866780243347,0.0,-0.002181661564992912,0.0,-2.875,63.375,-85.25
1772750464.2615213,-0.10407882670180119,1.3809110688700008,-8.619505654942198,-0.22964694228895516,-1.461275916733883,9.737932544813285,-0.001090830782496456,0.001090830782496456,0.0,-2.875,63.375,-85.25
1772750464.3187504,-0.10407882670180119,1.3809110688700008,-8.619505654942198,-0.2331101557445321,-1.467539331748114,9.741969243375548,0.001090830782496456,0.001090830782496456,0.0,-2.875,63.375,-84.1875
1772750464.3680396,-0.10407882670180119,1.3809110688700008,-8.619505654942198,-0.23206977390527,-1.4717075644731548,9.744655621175857,-0.001090830782496456,-0.001090830782496456,-0.002181661564992912,-2.875,63.375,-84.1875
1772750464.4045417,-0.10407882670180119,1.3809110688700008,-8.619505654942198,-0.23091665190870292,-1.4674111265608147,9.74206186000615,0.001090830782496456,-0.001090830782496456,-0.001090830782496456,-2.875,63.0,-84.1875
1772750464.4686828,-0.10407882670180119,1.3809110688700008,-8.619505654942198,-0.23395513331288842,-1.464932021938514,9.741372144801607,-0.001090830782496456,-0.001090830782496456,-0.001090830782496456,-2.875,63.0,-85.0
1772750464.548584,-0.10407882670180119,1.3809110688700008,-8.619505654942198,-0.2359772087453126,-1.4632822055057861,9.740913147037608,0.0,0.001090830782496456,-0.001090830782496456,-2.875,63.0,-85.0
1772750464.5683825,-0.10407882670180119,1.3809110688700008,-8.619505654942198,-0.2359772087453126,-1.4632822055057861,9.740913147037608,0.0,0.001090830782496456,-0.001090830782496456,-2.875,63.0,-85.0
1772750464.6347313,-0.10407882670180119,1.3809110688700008,-8.619505654942198,-0.23063265394288954,-1.4655293828067821,9.740607689153007,-0.002181661564992912,-0.001090830782496456,-0.001090830782496456,-3.1875,63.375,-84.1875
1772750464.6688304,-0.10407882670180119,1.3809110688700008,-8.619505654942198,-0.227075912424466,-1.4670248541979798,9.740404410342993,0.0,-0.002181661564992912,0.0,-3.1875,63.375,-84.1875
1772750464.7208407,-0.10407882670180119,1.3809110688700008,-8.619505654942198,-0.22805405238268062,-1.4680200737033118,9.740269130565702,-0.001090830782496456,0.001090830782496456,-0.002181661564992912,-2.5,64.0625,-84.0625
1772750464.7498353,-0.10407882670180119,1.3809110688700008,-8.619505654942198,-0.22870499359833316,-1.46868238116678,9.73348887997045,0.001090830782496456,0.002181661564992912,0.0,-2.5,64.0625,-84.0625
1772750464.7930121,-0.10407882670180119,1.3809110688700008,-8.619505654942198,-0.22913818770586009,-1.4691231393852588,9.732321810646992,-0.002181661564992912,0.0,0.0,-3.1875,64.5,-84.5625
1772750464.8283744,-0.10407882670180119,1.3809110688700008,-8.619505654942198,-0.229426473545324,-1.4694164590560646,9.73154513904925,0.0,-0.002181661564992912,0.0,-3.1875,64.5,-84.5625
1772750464.86605,-0.10407882670180119,1.3809110688700008,-8.619505654942198,-0.2329634362584428,-1.4696116600203903,9.73102827277694,0.0,0.001090830782496456,-0.002181661564992912,-3.1875,63.6875,-84.0625
1772750464.9376264,-0.10407882670180119,1.3809110688700008,-8.619505654942198,-0.23688367914583083,-1.4664829020759116,9.729336419465321,0.0,0.001090830782496456,0.001090830782496456,-2.875,63.375,-83.375
1772750464.9679463,-0.10407882670180119,1.3809110688700008,-8.619505654942198,-0.23688367914583083,-1.4664829020759116,9.729336419465321,0.0,0.001090830782496456,0.001090830782496456,-2.875,63.375,-83.375
1772750465.0091722,-0.10407882670180119,1.3809110688700008,-8.619505654942198,-0.23527474650432806,-1.4628711177325637,9.734158385465046,0.0,0.001090830782496456,0.002181661564992912,-2.5,63.0,-84.5625
1772750465.049037,-0.10407882670180119,1.3809110688700008,-8.619505654942198,-0.23351028487585107,-1.4585655850712151,9.739457582489417,0.002181661564992912,-0.001090830782496456,0.002181661564992912,-2.5,63.0,-84.5625
1772750465.0818417,-0.10407882670180119,1.3809110688700008,-8.619505654942198,-0.23233605537242752,-1.4590454128883583,9.736293915498589,0.001090830782496456,-0.002181661564992912,0.001090830782496456,-2.5,63.0,-84.1875
1772750465.1295187,-0.10407882670180119,1.3809110688700008,-8.619505654942198,-0.23155461875490216,-1.4627098446479585,9.744223865578626,0.001090830782496456,0.0,0.002181661564992912,-2.5,63.0,-84.1875
1772750465.169056,-0.10407882670180119,1.3809110688700008,-8.619505654942198,-0.231034581415158,-1.4651484830495876,9.739465823651585,0.001090830782496456,0.001090830782496456,0.001090830782496456,-2.5,63.0,-85.375
1772750465.2166367,-0.10407882670180119,1.3809110688700008,-8.619505654942198,-0.230688502374756,-1.460081146249857,9.74633473502191,0.0,0.002181661564992912,0.002181661564992912,-2.5,63.0,-85.375
1772750465.2729259,-0.10407882670180119,1.3809110688700008,-8.619505654942198,-0.23380330234664404,-1.4567088902154974,9.747560807100774,0.001090830782496456,0.0,0.001090830782496456,-2.875,62.25,-82.5625
1772750465.3477278,-0.10407882670180119,1.3809110688700008,-8.619505654942198,-0.23587616693334,-1.4544646914951993,9.748376744373134,0.0,-0.002181661564992912,0.002181661564992912,-2.875,62.25,-82.5625
1772750465.3688416,-0.10407882670180119,1.3809110688700008,-8.619505654942198,-0.23725563516037151,-1.4563163140235027,9.742229518098636,0.001090830782496456,0.0,0.001090830782496456,-3.5625,63.6875,-84.1875
1772750465.414393,-0.10407882670180119,1.3809110688700008,-8.619505654942198,-0.23482854414847182,-1.460893659839429,9.738138607681973,0.002181661564992912,0.0,0.002181661564992912,-3.5625,63.6875,-84.1875
1772750465.4368398,-0.10407882670180119,1.3809110688700008,-8.619505654942198,-0.23321334219243567,-1.463939832347625,9.735416152498148,0.001090830782496456,0.0,-0.001090830782496456,-3.5625,63.0,-85.0
1772750465.4654794,-0.10407882670180119,1.3809110688700008,-8.619505654942198,-0.23321334219243567,-1.463939832347625,9.735416152498148,0.001090830782496456,0.0,-0.001090830782496456,-3.5625,63.0,-85.0
1772750465.5122368,-0.10407882670180119,1.3809110688700008,-8.619505654942198,-0.23548355504100105,-1.4659670261238527,9.73360438898513,0.001090830782496456,-0.002181661564992912,0.0,-3.5625,63.0,-85.0
1772750465.550551,-0.10407882670180119,1.3809110688700008,-8.619505654942198,-0.23699435633178215,-1.467316100936694,9.732398680605941,0.001090830782496456,-0.001090830782496456,0.0,-2.5,63.375,-84.0625
1772750465.5790346,-0.10407882670180119,1.3809110688700008,-8.619505654942198,-0.23799977771404074,-1.4648687834471674,9.731596295148236,0.002181661564992912,0.0,0.0,-2.5,63.375,-84.0625
1772750465.6323411,2.637836292301327,1.367043505212563,149.08945612774863,-0.2386688744126411,-1.4632401209962151,9.731062316589366,0.001090830782496456,0.0,-0.001090830782496456,-2.875,63.375,-83.75
1772750465.6518195,2.637836292301327,1.367043505212563,149.08945612774863,-0.2386688744126411,-1.4632401209962151,9.731062316589366,0.001090830782496456,0.0,-0.001090830782496456,-2.875,63.375,-83.75
1772750465.6879177,-0.08340555067714536,1.3824918635184362,-8.640418740889615,-0.21712549252239044,-1.461434969823538,9.730470473865193,-0.0272707695624114,0.019634954084936207,-0.008726646259971648,-3.5625,63.375,-83.375
1772750465.7432415,-0.059704905648477455,1.356232531850234,-8.584161336712985,-0.19467126543276764,-1.4609549563879014,9.71693264827247,0.019634954084936207,0.017453292519943295,-0.011999138607461015,-3.5625,63.375,-83.375
1772750465.7630374,-0.059704905648477455,1.356232531850234,-8.584161336712985,-0.19467126543276764,-1.4609549563879014,9.71693264827247,0.019634954084936207,0.017453292519943295,-0.011999138607461015,-3.5625,63.375,-83.375
1772750465.8097737,-0.23435290694427174,1.3431204803785828,-8.607371968131279,-0.21208035874124792,-1.3544392293091245,9.701927806888726,0.015271630954950384,-0.02945243112740431,-0.030543261909900768,-2.875,63.0,-83.0
1772750465.858266,-0.1932129894281825,1.3602434067062787,-8.578724260259788,-0.31842803013739096,-1.4365820501987663,9.707973157364073,0.030543261909900768,-0.003272492347489368,0.014180800172453928,-3.1875,63.0,-83.0
1772750465.874814,-0.21284511691193095,1.3447426696516478,-8.557747972067853,-0.3423696535677233,-1.3139562594174627,9.711996270574426,0.018544123302439753,-0.017453292519943295,-0.020725784867432664,-3.1875,63.0,-83.0
1772750465.9171553,-0.21571217429022008,1.3796022810115307,-8.579068280724467,-0.358302536515152,-1.3427388518138825,9.714673607474797,-0.015271630954950384,0.015271630954950384,0.011999138607461015,-2.875,63.375,-84.1875
1772750465.9513257,-0.1931292965018095,1.3602489577992716,-8.57167030160628,-0.2652072292078005,-1.251504659189536,9.689694451615626,0.018544123302439753,-0.028361600344907856,0.002181661564992912,-2.875,63.375,-84.1875
1772750465.9948685,-0.10784679940359329,1.4368048915811382,-8.58495876337041,-0.17649244847892565,-1.3011780094922825,9.673071102426801,-0.00545415391248228,0.0272707695624114,0.04799655442984406,-2.875,63.375,-84.5625
1772750466.052215,0.06621320755804902,1.4568480685042005,-8.568691371241568,-0.0457965607003501,-1.24378483230248,9.70478759274723,-0.04036073895236887,0.025089107997418487,-0.1407171709420428,-2.875,63.375,-83.375
1772750466.1675937,1.7593722235030325,1.9841267992842877,-9.010914936728101,-0.3222366203339042,-1.18933249893272,10.073415886485655,-0.15707963267948966,0.11999138607461016,0.4406956361285682,-1.375,-1984.625,-84.5625
1772750466.2156374,2.6080783097224396,2.4071237077041494,-9.500674780143902,-0.3917357917012341,-1.1895557854962007,10.57069487868884,-0.23889194136672387,0.11453723216212788,0.4014257279586958,-1.375,-1984.625,-84.5625
1772750466.2532005,3.244224243368485,2.546046786796202,-9.780163841243535,-0.4379867138895789,-1.340234407039295,11.162547206200651,-0.17671458676442586,0.019634954084936207,0.39269908169872414,-0.25,63.0,-82.5625
1772750466.2892437,3.86399242628806,2.402733151613833,-9.97626478277769,-0.3951737283882422,-1.6278356020956197,11.556418318736062,-0.13308135546456762,-0.14508049407202864,0.346884188833873,-0.25,63.0,-82.5625
1772750466.3534973,5.606285623100175,0.7886359819566724,-10.05147513686262,-0.2607484430958312,-2.0023149355915706,11.739956011096895,0.15707963267948966,-0.4603305902135044,0.26616271092913524,-0.25,59.6875,-81.75
1772750466.3954577,6.2677910321537835,0.45230708179829465,-9.140029523748638,-0.11331316539756559,-2.1487254788987182,11.743315837583692,0.31634092692397225,-0.1559888018969932,0.21489366415180183,-0.25,56.0,-80.1875
1772750466.4577744,6.516542523415554,1.1492820091499265,-7.597545297336091,0.07512138104828811,-2.2461600599566927,11.651888636773991,0.830122225479803,0.38069994309126315,0.13199052468207118,-0.25,56.0,-80.1875
1772750466.4791646,6.5552040838082215,2.099231374524082,-5.543350096609936,0.20052246675619748,-2.240754339381481,11.591044855943887,0.9413869652944415,0.42978732830360367,0.0545415391248228,-0.6875,46.0,-74.5625
1772750466.5264854,6.444581201366621,2.904276713964714,-3.529925162365102,0.28397548847289794,-2.1267682063829936,11.550553999471019,0.9130253649495337,0.346884188833873,-0.032724923474893676,-0.6875,46.0,-74.5625
1772750466.5437424,6.446876762476931,3.127503338707584,-2.6482398184344995,0.225778744145168,-2.0341861496444396,11.557058903874022,0.7744898555724837,0.15489797111449674,0.032724923474893676,-0.6875,46.0,-74.5625
1772750466.5942752,6.736888817085839,2.397243694568168,-1.2044000080388337,-0.12739103959272777,-1.6815491065574837,11.561387845089678,0.545415391248228,-0.2552544031041707,0.11671889372712078,1.875,35.6875,-69.75
1772750466.646303,6.698166978698642,-0.7211794436412899,-2.165222390015627,-0.36242158550531456,-1.3398295189627742,11.48398602613559,-0.7341291166201148,-1.4671674024577332,-0.1538071403320003,1.875,35.6875,-69.75
1772750466.688174,6.290141432991717,-5.764443143093452,-5.003328810955665,-0.2512228517613646,-0.8916415779933269,11.041097910500246,-0.9490227807719167,-1.7311484518218756,-0.24980024919168842,-1.75,32.0,-63.75
1772750466.730909,6.290141432991717,-5.764443143093452,-5.003328810955665,-0.2512228517613646,-0.8916415779933269,11.041097910500246,-0.9490227807719167,-1.7311484518218756,-0.24980024919168842,-1.75,32.0,-63.75
1772750466.7838125,6.720605236400689,-13.480571505590033,-10.21668674484561,0.2152169738056442,-0.5721770248423208,10.288368003070843,-0.8486663487822428,-1.3537210010781018,-0.07526732399225546,-11.0,36.75,-57.75
1772750466.8189075,7.362827867237356,-14.395852019276912,-10.975078239852587,0.41083342852208393,-0.6082450144941168,10.00123431744478,-0.23889194136672387,-0.43196898986859655,0.38069994309126315,-11.0,36.75,-57.75
1772750466.8364112,7.362827867237356,-14.395852019276912,-10.975078239852587,0.41083342852208393,-0.6082450144941168,10.00123431744478,-0.23889194136672387,-0.43196898986859655,0.38069994309126315,-11.0,36.75,-57.75
1772750466.862371,8.821370474234662,-14.330331090658484,-11.113406831140162,0.5677748876154513,-0.6322478587015431,9.422117099105018,0.1832595714594046,-0.0272707695624114,0.6784967467127956,-15.375,39.375,-55.75
1772750466.9240253,10.211748659570885,-13.771270354564653,-10.802629710514369,0.6989785691496727,-0.5277974619287491,8.872810585804464,0.3948807432637171,0.17889624832941878,0.866119641302186,-15.375,39.375,-55.75
1772750466.959594,12.588265227493395,-12.55099413693001,-10.147431277546668,0.7862931535695414,-0.4214906608833246,8.426970556383091,0.4308781590861001,0.2814343418840856,0.9010262263420726,-15.375,39.0,-55.0
1772750466.9908118,14.3898025469966,-11.360277071951149,-9.478530114206155,0.8209842521819115,-0.3106033318245397,8.130268997162625,0.3097959422289935,0.3010692959690218,0.8857545953871222,-15.375,39.0,-55.0
1772750467.0271838,16.180325854500023,-10.43303499146233,-9.50903494349142,0.8039294502956479,-0.27695039351637923,7.9328174238749884,0.09272061651219876,0.2683443724941282,0.7973973020049093,-14.25,39.0,-55.75
1772750467.0667439,17.663541278948827,-9.546152981498736,-9.689494476462414,0.7925796701549596,-0.27462540924416756,7.456869101676766,-0.002181661564992912,0.32288591161895097,0.6621342849753488,-14.25,39.0,-55.75
1772750467.115404,19.15484764468834,-7.41801117271705,-10.253500559815132,0.9054505397201809,-0.31990972208525814,6.60825804848119,-0.11780972450961724,0.5923211148955756,0.5312345910757741,-13.1875,39.75,-55.75
1772750467.1557567,19.72142444189618,-5.462448318001343,-10.441570529902268,0.980564842565608,-0.5942390810563991,6.013410866820255,-0.031634092692397225,0.8901179185171081,0.39051742013373125,-13.1875,39.75,-55.75
1772750467.182532,19.72142444189618,-5.462448318001343,-10.441570529902268,0.980564842565608,-0.5942390810563991,6.013410866820255,-0.031634092692397225,0.8901179185171081,0.39051742013373125,-13.1875,39.75,-55.75
1772750467.2101908,20.370744196042786,-3.0463026269839375,-10.305076190291079,0.987066119832346,-0.7768022049919616,5.617546712303313,0.16907877128695067,1.102829921103917,0.5606870222031783,-10.1875,40.5,-57.0
1772750467.2636282,21.95798979993987,1.5085131241929195,-8.937385095242803,0.7906859447901715,-0.8146681319243745,5.725410939077094,0.4985096676008804,1.3319043854281727,0.7581273938350369,-10.1875,40.5,-57.0
1772750467.3380625,23.56812563754592,6.091162473466806,-7.357484715025998,0.4392197593268185,-0.8398674833077759,6.596675075122016,0.4886921905584123,1.3329952162106693,0.7079491778402,-4.6875,41.5625,-59.375
1772750467.376574,23.9726704004718,8.367233269292747,-7.161003744062688,-0.032179992184176,-1.0907951896705872,8.09974245622195,0.003272492347489368,0.9555677654668955,0.25416357232167425,-4.6875,41.5625,-59.375
1772750467.4195158,23.742831710305083,9.740623170432308,-7.490008766134438,-0.49642128776385513,-1.8130733186239119,9.772298309881641,-0.14180800172453928,0.5159629601208237,-0.04799655442984406,2.25,39.0,-61.0
1772750467.4528112,24.221521638966394,9.702856719323904,-7.168661541992952,-0.805368684057064,-2.293741345066986,10.885451698089783,0.14508049407202864,-0.08944812416470939,0.2530727415391778,2.25,39.0,-61.0
1772750467.4956794,25.771777891335585,9.319197365236827,-6.4655920520271835,-0.9039261504874272,-2.5233025311535537,11.4890932632041,0.27052603405912107,-0.34579335805137656,0.8813912722571364,3.75,39.0,-60.1875
1772750467.547104,32.03826624724315,8.517525641531378,-4.236466703222552,-0.7554278941693553,-2.4251895580787375,11.439219901181453,0.39269908169872414,-0.36106498900632694,2.0976675947406846,3.75,39.0,-60.1875
1772750467.5651188,34.64627607606805,8.46325756188621,-3.4767304347631245,-0.6398784048872962,-1.8213334856127485,10.767113399779335,0.31852258848896514,-0.17671458676442586,2.342013690019891,2.5625,39.375,-61.75
1772750467.603329,34.64627607606805,8.46325756188621,-3.4767304347631245,-0.6398784048872962,-1.8213334856127485,10.767113399779335,0.31852258848896514,-0.17671458676442586,2.342013690019891,2.5625,39.375,-61.75
1772750467.6436956,42.98539388992462,8.900745550376786,-2.1584575391173915,-0.34889436127401563,-1.3124304402667275,10.165958892481097,-0.06217735460229799,0.05126904677733343,2.0627610097007985,2.5625,39.375,-61.75
1772750467.6852026,45.85202448223609,9.803615895368205,-2.865199270162564,-0.15524773075412698,-0.9737611484084527,9.765897283209974,-0.5825036378531074,0.40033489717619936,1.1879147221386406,3.0,39.375,-61.375
1772750467.7821312,44.617778823611665,11.484585489507223,-6.6888376801547755,-0.31405766814720837,-0.7517256295679653,9.640155442928451,-1.05265170510908,0.5585053606381855,-0.15817046346198613,3.0,39.375,-61.375
1772750467.8351357,28.353637041003285,10.965442873433647,-14.845386731121085,-0.600379939654311,-1.1525617920792617,9.60665232845928,-0.9021170571245691,0.4756022211684548,-2.827433388230814,5.1875,46.75,-59.375
1772750467.8671503,25.20052998272394,10.33132844028764,-15.359974056715979,-1.0317722558399405,-1.640091153280286,9.584356380034357,0.1461713248545251,0.13853550937704992,-2.7794368338009696,5.1875,46.75,-59.375
1772750467.9097009,18.976117542791354,8.33735013597435,-14.027855202286958,-1.3188590232935526,-1.967881608807081,9.890649399322294,0.8235772407848243,-0.13853550937704992,-1.7911441448591807,3.0,44.5625,-59.75
1772750467.9487176,17.91444822224987,7.325603294614234,-12.48370750691986,-0.9780392986008271,-2.2462345060326014,10.44572071140974,1.0319259202416473,-0.4461497900410505,-0.7592182246175333,3.0,44.5625,-59.75
1772750467.962285,17.91444822224987,7.325603294614234,-12.48370750691986,-0.9780392986008271,-2.2462345060326014,10.44572071140974,1.0319259202416473,-0.4461497900410505,-0.7592182246175333,3.0,44.5625,-59.75
1772750468.004147,17.954730137390627,6.628941678438283,-11.466524487214668,-0.5639013234137166,-2.4314752497305863,10.958954272465833,0.9392053037294485,-0.5846852994181004,-0.23234695667174513,3.0,44.5625,-59.75
1772750468.0400476,22.611359973236226,4.178608997098492,-9.391016974191814,0.09010800310303752,-2.305717961411484,11.838686612407223,0.1265363707695889,-0.9152070265145266,1.8020524526841453,-1.375,42.0,-59.75
1772750468.0635908,26.364063851534727,3.1628789486330557,-9.087153853874327,0.06665609290736207,-2.1633105477381145,12.066593551326225,0.044724062082354694,-0.9675669040743564,2.1423916568230394,-1.375,42.0,-59.75
1772750468.0952392,31.908865519801985,1.8578988232341076,-9.185355789137441,-0.19314404598717272,-2.0283986642456986,12.174776621094349,-0.10144726277217041,-0.9872018581592926,2.3572853209748414,-3.5625,40.5,-60.1875
1772750468.161585,38.73058899813096,0.6788393551676172,-10.310946003879458,-0.41621481187356724,-1.941961424553301,11.654686473345432,-0.4985096676008804,-0.7853981633974483,2.310379597327494,-3.5625,40.5,-60.1875
1772750468.212343,43.88617313498316,0.5748776396982692,-12.166428683659992,-0.6817448244634121,-1.8844384071052445,10.348525229805489,-0.7352199474026113,-0.28688849579656794,1.6536994662646272,-5.0625,43.5,-58.1875
1772750468.2405348,45.95982344339865,1.03356484798728,-14.027120208817005,-0.8584520816773618,-2.020103290348379,9.429112837396985,-0.868301302867179,0.0272707695624114,0.8584838258247108,-5.0625,43.5,-58.1875
1772750468.2798827,46.15386308436853,1.4245605217642254,-15.49613853444259,-0.9425976703306496,-2.1103867546706407,8.238549835392249,-0.8857545953871222,0.20289452554434081,0.17780541754692233,-4.0,50.0625,-57.75
1772750468.3296983,45.04108765925913,1.6238797182423823,-16.90244569267318,-0.9785249493676816,-2.2407167374984347,7.158563850188781,-0.7984881327874057,0.33052172709642613,-0.8770279491271507,-4.0,50.0625,-57.75
1772750468.3454502,42.743007968340066,1.5847064609519734,-18.067926468967734,-0.8385236785741732,-2.3408303320183075,5.964839378830458,-0.6065019150680295,0.4243331743911214,-1.5151639568875774,-2.1875,52.6875,-55.0
1772750468.363285,42.743007968340066,1.5847064609519734,-18.067926468967734,-0.8385236785741732,-2.3408303320183075,5.964839378830458,-0.6065019150680295,0.4243331743911214,-1.5151639568875774,-2.1875,52.6875,-55.0
1772750468.4325035,33.10057753368104,1.0416561069552472,-18.89040533058922,-0.2007371573051248,-2.5654200753453122,4.701969907536316,0.17889624832941878,0.6065019150680295,-1.7606008829492799,-5.5,53.375,-55.75
1772750468.455196,31.38567364553995,1.3343383019418735,-18.292786297823813,0.22433861687758788,-2.647234792279081,4.988990558289577,0.6424993308904126,0.7777623479199731,-1.3231777391682011,-5.5,53.375,-55.75
1772750468.4752724,31.38567364553995,1.3343383019418735,-18.292786297823813,0.22433861687758788,-2.647234792279081,4.988990558289577,0.6424993308904126,0.7777623479199731,-1.3231777391682011,-5.5,53.375,-55.75
1772750468.525353,27.862493136387393,3.165503180709009,-15.8890116331442,0.5808142537496828,-2.7853093651512175,5.624899452208599,0.9392053037294485,0.9937468428542714,-1.0188359508516898,-6.1875,51.5625,-57.0
1772750468.539936,26.344895307930607,5.024378052766574,-14.255729188698947,0.7444523504332533,-2.877196451003583,6.710421835593155,1.0188359508516898,1.3700834628155487,-0.44833145160604343,-6.1875,51.5625,-57.0
1772750468.5771036,25.46990867943521,7.777191140907899,-12.005594759469627,-0.3408532036941635,-2.747674912875123,8.382977689252847,1.0624691821515482,1.2860894925633215,-0.02945243112740431,-2.1875,44.5625,-59.75
1772750468.6528246,25.827777324471906,10.333539714301525,-7.7008567205663745,-2.4541181200513833,-2.6041178754406142,11.72808939657223,0.3141592653589793,-0.07090400086226964,-0.04036073895236887,0.0625,41.5625,-59.75
1772750468.7084103,24.582372968321767,8.3773416734485,-8.54116449900757,-3.021409553136076,-2.5124223840084228,12.334193733786467,-0.2476185876266955,-0.657770961845363,-0.5486878835957173,0.0625,41.5625,-59.75
1772750468.7725053,22.549813350501413,5.5552128155730385,-10.169326194787416,-3.06442449406147,-2.3142504787659592,12.132084180548656,-0.5181446216858165,-0.8770279491271507,-0.8944812416470939,1.875,39.0,-60.1875
1772750468.8350494,20.817060537723986,3.4094770874059033,-11.59755847956221,-2.9893519938120447,-2.128847502235221,11.676451806677871,-0.44724062082354693,-0.5923211148955756,-0.7243116395776468,1.875,39.0,-60.1875
1772750468.865476,19.854738484713792,2.1280577368713813,-12.558302925636722,-2.1031141566809826,-1.9987736690263271,10.657379646247628,-0.41233403578366035,-0.4559672670835186,-0.5137812985558308,-4.0,40.875,-59.0
1772750468.9557834,19.73396883297433,1.0986733747849908,-13.650703042779217,-0.7640277535560307,-1.9189012094603701,9.641342224823973,-0.3937899124812206,-0.31306843457648287,0.05235987755982989,-4.0,40.875,-59.0
1772750468.9836237,20.806948341197497,0.8354530942739373,-14.780002546867598,0.9085281001036611,-2.1433912515605695,8.831376202455429,-0.4166973589136462,-0.13853550937704992,0.4505131131710363,-7.25,42.6875,-58.5625
1772750469.0310876,23.625586161605497,1.8781171094309632,-15.097859893930744,2.049703559257096,-2.292786866860169,8.292352862482478,-0.013089969389957472,0.14289883250703572,1.2555462306534209,-7.25,42.6875,-58.5625
1772750469.0553203,27.695045810172857,3.4712710407436767,-13.14491326923516,1.9527944824847951,-2.0777674794956593,8.395264266625794,0.9304786574694769,0.2596177262341565,2.059488517353309,-6.875,46.375,-58.1875
1772750469.0990808,31.404289115189766,4.79893159120498,-10.479484547059153,0.7041330300470863,-1.4931197337623572,9.473974392097915,1.6198837120072371,0.3337942194439155,2.3867377521022455,-6.875,46.375,-58.1875
1772750469.1333218,35.11951371842716,6.044953896229871,-7.615740859172255,-0.9684228236126056,-0.9702387216273153,10.191843930617962,1.4300791558528538,0.40251655874119224,2.222022303945281,-6.875,46.375,-58.1875
1772750469.158068,39.230869383084816,7.617837339180111,-4.644391698873516,-2.133049280879549,-0.6222672490150671,10.589295408399206,0.6948592084502424,0.3785182815262702,1.2588187230009102,-2.1875,43.875,-59.75
1772750469.2191663,39.230869383084816,7.617837339180111,-4.644391698873516,-2.133049280879549,-0.6222672490150671,10.589295408399206,0.6948592084502424,0.3785182815262702,1.2588187230009102,-2.1875,43.875,-59.75
1772750469.2522016,37.431725880493005,6.910507815643802,-6.8078927252123735,-2.24241794870418,-0.8155253079172204,10.428965740209145,-0.7832165018324554,-0.31852258848896514,-1.153008137098754,1.5,42.0,-61.0
1772750469.2897573,33.06350971353466,5.466115719685688,-9.883563380835119,-2.154636213462071,-1.1414979780144763,10.01786297166234,-1.2020955223110945,-0.3665191429188092,-2.151118303083011,1.5,42.0,-61.0
1772750469.3355386,33.06350971353466,5.466115719685688,-9.883563380835119,-2.154636213462071,-1.1414979780144763,10.01786297166234,-1.2020955223110945,-0.3665191429188092,-2.151118303083011,1.5,42.0,-61.0
1772750469.3656998,24.670688445129784,-52.173033945275954,148.8121411008511,-2.086183114122723,-1.5524456276354073,9.490050181756995,-1.279544507868343,0.11453723216212788,-2.799071787885906,-2.5,45.25,-59.0
1772750469.403754,19.62285448424525,2.709206768712354,-16.792222412415004,-1.9837614421591803,-1.8259266978721023,9.138796666130178,-0.9021170571245691,0.4341506514335895,-2.7739826798884875,-2.5,45.25,-59.0
1772750469.4448066,11.991239058415879,2.2923760770060926,-18.083006873957068,-1.8988754050558878,-2.007925295130897,9.015430061580936,-0.41560652813114973,0.6130468997630083,-2.342013690019891,-5.5,46.75,-58.5625
1772750469.4651728,9.737270846880842,2.2699779314265793,-17.18614692750957,-1.7119253390173566,-2.279573355378454,9.227700794592792,0.7548549014875475,0.32288591161895097,-1.100648259538924,-5.5,46.75,-58.5625
1772750469.507589,8.190154364701298,2.1461874239664986,-15.16630602034001,-1.4369821316084153,-2.5372896742338864,9.66333442643683,0.9730210579868387,0.10035643198967395,-0.5945027764605685,-6.875,-2002.3125,-59.375
1772750469.5590968,8.094284278053166,1.9821734758936047,-13.192606792723492,-1.1436218120530934,-2.7087970055522628,9.983349747448388,0.8737554567796613,-0.07963064712224129,0.018544123302439753,-6.875,-2002.3125,-59.375
1772750469.5727756,8.524444526171411,1.9868592347606817,-12.411901837112502,-0.5335999447309143,-2.3077860157550334,10.289979496581156,0.6337726846304409,-0.07417649320975901,0.4406956361285682,-7.6875,43.0625,-59.375
1772750469.621589,9.900968144596778,2.208359712095125,-11.527356892272776,0.012857485288653714,-2.027537234801971,10.504073504472238,0.22471114119426994,0.0,0.6894050545377601,-7.6875,43.0625,-59.375
1772750469.65508,11.347162348691112,2.602247226934939,-11.368638169560041,0.5002879338080268,-1.841034801661716,10.76697469660048,-0.03599741582238305,0.07526732399225546,0.6501351463678877,-7.25,40.875,-61.75
1772750469.7160907,12.786970151017936,3.232699995869824,-11.699721426805514,0.8982599099038171,-1.7570608562633954,10.94193250316308,-0.17671458676442586,0.1308996938995747,0.5126904677733343,-7.25,40.875,-61.75
1772750469.7736404,13.939164769392255,2.813904115067297,-13.042621476804795,1.1631058143573016,-1.9152642829196875,11.058364969023733,-0.4439681284760576,-0.34143003492139073,0.15926129424448257,-7.25,43.0625,-61.375
1772750469.8390775,14.419746394685848,0.7476101782323316,-14.595753869194068,1.339357805248492,-2.2245987102578613,11.112433692466897,-0.5868669609830933,-0.8813912722571364,-0.06326818538479445,-7.25,43.0625,-61.375
1772750469.8846476,14.334493326078631,-2.418849586884161,-16.917565732771646,1.5068282119326262,-2.6512346888425284,10.579746833686812,-0.8628471489546967,-1.124646536753846,-0.3392483733563978,-8.0,45.25,-60.5625
1772750469.9434896,13.631043021515442,-4.986718761307905,-19.342425130614437,1.6182778968138967,-2.935156166754472,8.90719098002712,-0.7330382858376184,-0.5617778529856748,-0.5159629601208237,-8.0,45.25,-60.5625
1772750469.960317,12.772754299619965,-5.678153114641476,-20.050052831076425,1.6589953000546338,-2.866529137230557,7.643678403220131,-0.08944812416470939,0.07090400086226964,-0.39051742013373125,-12.0625,47.5,-57.375
1772750469.9871004,12.363598400164388,-5.169860985001543,-19.461978525044902,0.7461158873114008,-2.6803639239891277,7.414980340154822,0.4985096676008804,0.4854196982109229,0.06544984694978735,-12.0625,47.5,-57.375
1772750470.046645,13.512038968602797,-2.7164352333186823,-15.19328018823617,-0.9264399663482911,-2.426013697593194,8.543962117812942,1.3417218624706408,0.6544984694978736,0.5934119456780721,-11.6875,47.1875,-57.0
1772750470.0879154,13.99620104906897,-2.076328634199064,-13.137332679054595,-2.2121537329836127,-1.928925515887598,9.8271596407554,1.05265170510908,0.16253378659197193,0.2650718801466388,-11.6875,47.1875,-57.0
1772750470.1355133,14.25576074676898,-3.117346710190094,-12.334894693292028,-3.067781882315583,-1.6516406711184617,10.681113258018055,0.08835729338221293,-0.581412807070611,-0.06981317007977318,-8.375,42.375,-58.5625
1772750470.188026,14.061335822755838,-5.56579390354418,-13.653991915917262,-2.723977361605122,-1.4671107043992728,10.593767956384804,-0.6152285613280012,-0.8530296719122286,-0.29670597283903605,-8.375,42.375,-58.5625
1772750470.2126057,13.766125942226948,-6.630502998803556,-14.779314268694714,-1.6923524838637982,-1.6119170094679962,10.167678346053695,-0.7035858547102141,-0.5792311455056182,-0.32834006553143325,-11.0,43.0625,-57.75
1772750470.2554784,12.928111460934636,-7.107789269185452,-15.963463371721092,-0.7850402790488382,-2.163219180094251,9.817218235964773,-0.495237175253391,0.10253809355466686,-0.46469391334349025,-11.0,43.0625,-57.75
1772750470.2795005,12.928111460934636,-7.107789269185452,-15.963463371721092,-0.7850402790488382,-2.163219180094251,9.817218235964773,-0.495237175253391,0.10253809355466686,-0.46469391334349025,-11.0,43.0625,-57.75
1772750470.3226297,8.867534768958624,-6.010286855324271,-16.599043004156304,1.0832526778183729,-3.289079018667739,8.915071706624643,-0.07417649320975901,0.5781403147231217,-1.2588187230009102,-16.1875,46.0,-57.375
1772750470.3590474,4.84464944623328,-6.087293969836057,-16.215453864634593,1.9552387763636943,-3.7075260606263387,8.639076004103835,-0.008726646259971648,0.4701480672559725,-1.872956453546415,-16.1875,46.0,-57.375
1772750470.3830206,4.84464944623328,-6.087293969836057,-16.215453864634593,1.9552387763636943,-3.7075260606263387,8.639076004103835,-0.008726646259971648,0.4701480672559725,-1.872956453546415,-16.1875,46.0,-57.375
1772750470.4558845,-2.8767986047065017,-7.946733189230684,-15.757208097666412,2.535535784222645,-3.985997892690051,8.468784393979524,-0.07417649320975901,-0.05235987755982989,-2.0398535632683727,-16.5,43.5,-58.1875
1772750470.4789941,-2.8767986047065017,-7.946733189230684,-15.757208097666412,2.535535784222645,-3.985997892690051,8.468784393979524,-0.07417649320975901,-0.05235987755982989,-2.0398535632683727,-16.5,43.5,-58.1875
1772750470.518796,-8.00850162982312,-8.933340425754652,-15.097673671080628,2.58051556646388,-3.9505404135111837,8.740145076065453,0.020725784867432664,0.2650718801466388,-2.480549199396941,-16.5,43.5,-58.1875
1772750470.5717087,-16.011814258219374,-9.773266815727661,-13.98531468250571,2.0685410125025916,-3.66937025574005,9.02777615333042,-0.04036073895236887,0.3959715740462135,-2.919063173960516,-16.5,39.0,-58.5625
1772750470.6214345,-24.21226601314455,-9.752913487296412,-12.78931674017212,1.4635638410936245,-3.254787060522104,9.429933459761715,0.01090830782496456,0.7472190860100724,-2.8121617572758635,-16.5,39.0,-58.5625
1772750470.6422179,-29.40632290299294,-9.423084474191107,-11.498158804530467,0.7063764505829129,-2.8283565484729287,9.811298452849135,0.21380283336930536,0.6032294227205401,-2.055125194223323,-13.5625,31.6875,-59.75
1772750470.6684499,-32.27162440403216,-9.505305291901264,-10.23630587325722,0.2024767005354008,-2.6951018330745153,10.155410611720328,0.5061454830783556,0.23125612588924865,-1.646063650787152,-13.5625,31.6875,-59.75
1772750470.696285,-34.979127650288284,-10.789525690550828,-8.244071174222817,0.007631737515227194,-2.4358216114562876,10.2940953933668,0.49741883681838395,-0.5159629601208237,-0.7417649320975901,-12.0625,28.25,-60.5625
1772750470.7165582,-34.979127650288284,-10.789525690550828,-8.244071174222817,0.007631737515227194,-2.4358216114562876,10.2940953933668,0.49741883681838395,-0.5159629601208237,-0.7417649320975901,-12.0625,28.25,-60.5625
1772750470.7341156,-35.40188599826053,-12.213191043277329,-7.746433628784157,0.34628023021086685,-1.9789390251970622,10.138850300000371,0.21707532571679475,-0.8475755179997463,-0.32506757318394386,-12.0625,28.25,-60.5625
1772750470.7524955,-35.40188599826053,-12.213191043277329,-7.746433628784157,0.34628023021086685,-1.9789390251970622,10.138850300000371,0.21707532571679475,-0.8475755179997463,-0.32506757318394386,-12.0625,28.25,-60.5625
1772750470.7760632,-35.31364214777927,-13.34498572191885,-7.734782210872025,0.7288672693922928,-1.5444294111689902,10.0121206426151,0.009817477042468103,-1.0450158896316049,-0.004363323129985824,-12.0625,28.25,-60.5625
1772750470.825053,-33.2794504748401,-16.583145904429436,-9.013333714115076,1.2410482716538667,-1.0043847387747773,9.73376699226371,-0.2683443724941282,-1.0591966898040588,0.5159629601208237,-14.25,25.375,-59.375
1772750470.863265,-30.077235861155447,-18.059040255844053,-10.934143504811779,2.000037970637187,-0.6449910419906988,9.381270162002902,-0.34470252726888007,-0.7134033317526822,1.0013826583317467,-14.25,25.375,-59.375
1772750470.8867664,-30.077235861155447,-18.059040255844053,-10.934143504811779,2.000037970637187,-0.6449910419906988,9.381270162002902,-0.34470252726888007,-0.7134033317526822,1.0013826583317467,-14.25,25.375,-59.375
1772750470.9450886,-25.485592276736952,-18.446876231194192,-13.15327146958483,2.582074706108461,-0.74032972220348,9.143342347404616,-0.16798794050445423,-0.36106498900632694,1.2959069696057897,-19.875,27.1875,-57.0
1772750470.9882112,-21.28723063600982,-19.022475505392975,-14.07545675984808,2.999519657154118,-1.0345892566872834,8.985004044617295,0.1439896632895322,-0.5497787143782138,1.3569934934255912,-19.875,27.1875,-57.0
1772750471.0220754,-17.9432600568496,-19.8661664533488,-14.043024880424847,3.2773246089093555,-1.3508397112553723,9.063612816769634,0.5530512067257032,-0.729765793490129,1.2708178616083712,-21.25,30.5,-55.375
1772750471.0629168,-14.282928420299784,-21.07327252572947,-13.88089975653343,3.3484669029689598,-1.691760212606838,9.115926076519495,0.4756022211684548,-0.7057675162752071,1.0341075818066403,-21.25,30.5,-55.375
1772750471.0840547,-14.282928420299784,-21.07327252572947,-13.88089975653343,3.3484669029689598,-1.691760212606838,9.115926076519495,0.4756022211684548,-0.7057675162752071,1.0341075818066403,-21.25,30.5,-55.375
1772750471.1342208,-10.818380829493883,-22.89444915389265,-13.547781640025542,3.3236200126767366,-2.1888584194236214,8.756064757805193,0.4177881896961426,-0.5846852994181004,0.607592745850526,-23.5,32.375,-53.375
1772750471.17506,-10.818380829493883,-22.89444915389265,-13.547781640025542,3.3236200126767366,-2.1888584194236214,8.756064757805193,0.4177881896961426,-0.5846852994181004,0.607592745850526,-23.5,32.375,-53.375
1772750471.207534,-9.001756441487693,-22.920545695335615,-11.91116378249142,3.2755775140957057,-2.373221434781277,8.837663821254557,0.6185010536754906,-0.20289452554434081,0.4526947747360292,-25.6875,34.1875,-52.1875
1772750471.2545502,-8.707608116605776,-22.456407980698557,-11.029847851628611,3.176703533813515,-2.4959129620319724,9.196372251824908,0.5934119456780721,0.24870941840919197,0.21380283336930536,-25.6875,34.1875,-52.1875
1772750471.280374,-8.596817180465619,-22.13687637467498,-9.660006940044978,3.110904004430447,-2.5775628028631483,9.435088705333754,0.6446809924554054,0.11017390903214205,0.04908738521234052,-25.375,32.75,-51.75
1772750471.3483367,-8.772977511858482,-22.702735589194354,-7.344856392673114,3.107256493142752,-2.5516171788721462,9.262785779481762,0.7101308394051928,-0.21162117180431245,-0.11017390903214205,-25.375,32.75,-51.75
1772750471.3957045,-7.75799161147655,-22.58334368684995,-6.768808774837014,3.1048291151261616,-2.12624702764478,8.97082918658913,0.36106498900632694,-0.01090830782496456,0.34579335805137656,-26.0625,32.0,-51.375
1772750471.4462206,-5.87407070181526,-20.921914855102635,-8.560938403704755,3.1032137221717098,-1.4551349856498532,8.575828632948758,-0.48651052899341934,0.47778388273344774,0.5923211148955756,-26.0625,32.0,-51.375
1772750471.4809508,-5.192181908461997,-20.36848402417452,-9.801678847800604,3.1389349249861573,-1.008517418514951,8.31296017694639,-0.6141377305455047,0.18216874067690814,0.36106498900632694,-25.6875,32.375,-54.1875
1772750471.525428,-4.542232036033869,-20.269373721451498,-11.519629727704306,3.162706986427191,-0.9855975766319846,8.653171358837056,-0.6479534848028948,-0.12544553998709243,0.26725354171163174,-25.6875,32.375,-54.1875
1772750471.552647,-4.542232036033869,-20.269373721451498,-11.519629727704306,3.162706986427191,-0.9855975766319846,8.653171358837056,-0.6479534848028948,-0.12544553998709243,0.26725354171163174,-25.6875,32.375,-54.1875
1772750471.62006,-2.7619440066117638,-21.935733692620108,-14.997739888510592,2.8915410864834747,-1.1329972357248541,9.046962995620834,-0.3741549583962844,-0.3665191429188092,0.25089107997418486,-23.5,34.5625,-53.0
1772750471.6533217,-2.7619440066117638,-21.935733692620108,-14.997739888510592,2.8915410864834747,-1.1329972357248541,9.046962995620834,-0.3741549583962844,-0.3665191429188092,0.25089107997418486,-23.5,34.5625,-53.0
1772750471.6933315,-1.3598989153128938,-22.23378957379484,-16.09082747770374,2.8140880065713425,-1.2256577546985163,8.71012262507197,-0.1734420944169365,-0.18653206380689397,0.4657847441259867,-27.5625,37.875,-51.75
1772750471.7260044,0.01989277294335717,-21.494261309937638,-16.477233540118096,3.521884204658912,-1.2873222949896699,8.45250800415199,0.08944812416470939,0.21162117180431245,0.6774059159302992,-27.5625,37.875,-51.75
1772750471.7499363,0.9440700865110175,-20.07793685118813,-16.287214553078694,3.9929146678845937,-1.3751909216178542,8.28106835167362,0.3196134192714616,0.6774059159302992,0.7374016089676042,-28.0,39.375,-50.5625
1772750471.766457,1.5275029348363027,-18.83109399180995,-16.0147280487805,4.28296439745501,-1.617647654984603,8.468037231714408,0.4265148359561143,0.9653852425093635,0.8006697943523987,-28.0,39.375,-50.5625
1772750471.8044014,1.5275029348363027,-18.83109399180995,-16.0147280487805,4.28296439745501,-1.617647654984603,8.468037231714408,0.4265148359561143,0.9653852425093635,0.8006697943523987,-28.0,39.375,-50.5625
1772750471.8476324,3.3653653801038814,-15.307684864914494,-15.156497255545908,4.33549456070893,-1.8224863548161514,8.766408741582921,0.41996985126113556,0.8693921336496754,0.7886706557449377,-27.5625,40.875,-52.5625
1772750471.8775222,5.210085263736791,-13.545336164265704,-14.954776145181397,3.9422097731283525,-2.743760976908135,9.99096314807979,0.07526732399225546,0.08944812416470939,0.44505895925855404,-27.5625,40.875,-52.5625
1772750471.93371,5.813544300450507,-14.0693460482262,-15.10775678964132,3.670516531039265,-3.194092968607616,10.59945129502016,-0.009817477042468103,-0.34797501961636945,0.15707963267948966,-21.6875,41.5625,-55.75
1772750471.9610155,5.813544300450507,-14.0693460482262,-15.10775678964132,3.670516531039265,-3.194092968607616,10.59945129502016,-0.009817477042468103,-0.34797501961636945,0.15707963267948966,-21.6875,41.5625,-55.75
1772750471.988742,6.01902288594032,-15.054851983572838,-15.139145970564162,3.4897077134413546,-3.4937838785456576,11.004393359550997,0.015271630954950384,-0.6850417314077744,-0.0916297857297023,-21.6875,41.5625,-55.75
1772750472.0140574,5.968402941209652,-17.507587836870204,-15.035119080460229,3.4028325821699723,-3.6932248313426053,11.253807109753101,0.028361600344907856,-0.8573929950422144,-0.2519819107566813,-22.75,42.375,-54.1875
1772750472.03875,5.790330283714602,-18.634539873600833,-14.951094091900588,3.6260075361824993,-3.7958445521616784,11.168905796329502,0.026179938779914945,-0.9566585962493919,-0.4286964975211072,-22.75,42.375,-54.1875
1772750472.061998,5.790330283714602,-18.634539873600833,-14.951094091900588,3.6260075361824993,-3.7958445521616784,11.168905796329502,0.026179938779914945,-0.9566585962493919,-0.4286964975211072,-22.75,42.375,-54.1875
1772750472.1017976,5.43133393096177,-20.484345368253997,-14.790579585844373,3.7745279750502494,-3.8541014949074204,10.931768888460663,0.016362461737446838,-1.054833366674073,-0.49960049838337683,-22.75,42.375,-54.1875
1772750472.1409183,4.279104542958277,-25.81477056822122,-14.374087763798181,3.72181683307672,-3.463889873011484,9.611091509694418,-0.020725784867432664,-1.0613783513690516,-0.5246896063807953,-26.875,40.875,-53.375
1772750472.1834936,3.477749729351895,-28.828540954659278,-14.086053966888906,3.607475284068343,-3.161528613377669,8.714236449947078,-0.025089107997418487,-0.9970193352017608,-0.5159629601208237,-29.375,39.375,-49.75
1772750472.257383,2.549977073634906,-31.264832363938055,-13.83268552536772,3.494586031701548,-2.7997452107366154,7.886576718407646,-0.07417649320975901,-0.7243116395776468,-0.4821472058634335,-29.375,39.375,-49.75
1772750472.2769296,1.887870997024887,-32.42135980150601,-13.521374233637497,3.3625925962825933,-2.3114441313227703,7.135071710193988,-0.037088246604879506,-0.48432886742842646,-0.38942658935123475,-32.375,37.1875,-45.75
1772750472.335881,1.4470245433762912,-32.63108720934024,-13.130596909381227,3.2111953170354957,-1.8660611961898217,6.634953522088796,0.08617563181722002,0.11562806294462433,-0.10471975511965978,-32.375,37.1875,-45.75
1772750472.3548858,1.4470245433762912,-32.63108720934024,-13.130596909381227,3.2111953170354957,-1.8660611961898217,6.634953522088796,0.08617563181722002,0.11562806294462433,-0.10471975511965978,-32.375,37.1875,-45.75
1772750472.3811054,1.1668838629390301,-31.898154300190036,-12.687548166184799,3.1104421189149747,-1.562973604697584,6.7001987477620135,0.1461713248545251,0.39051742013373125,-0.016362461737446838,-31.875,36.0,-46.875
1772750472.4401677,0.8731982913783698,-30.829251311506578,-12.197185238283584,3.13036489544304,-1.361272198269738,6.827246509293599,0.1407171709420428,0.5028729907308662,-0.019634954084936207,-31.875,36.0,-46.875
1772750472.4580564,0.5623781944217837,-29.85419628716325,-11.758700488977647,3.4915148982316873,-1.2905992878834178,7.159333641718016,0.11126473981463851,0.4188790204786391,-0.03381575425739013,-33.375,34.875,-46.875
1772750472.49514,0.3012835250310444,-29.100435399037732,-11.390441361514403,3.982739568826615,-1.2602928140260559,7.433855706007239,0.11780972450961724,0.32179508083645453,-0.028361600344907856,-33.375,34.875,-46.875
1772750472.5625658,0.1027133072918805,-28.006048244615915,-10.83284486775671,4.336404993426978,-1.2903008698292677,7.6165470731793254,0.13526301702956053,0.3937899124812206,0.04254240051736178,-30.375,36.375,-48.5
1772750472.6066825,0.17974498122943336,-27.133534266354058,-10.685379288472758,4.571765382796865,-1.3102708957543578,7.738126137236059,0.1090830782496456,0.507236313860852,0.136353847812057,-30.375,36.375,-48.5
1772750472.645636,0.9806395240978744,-24.13546930080009,-10.738650628240482,4.517236417277188,-1.4160327504684227,7.966531328473419,0.044724062082354694,0.6370451769779303,0.30652344988150415,-31.1875,35.5625,-48.5
1772750472.6779425,1.5014272224994964,-22.9179293728616,-10.91050776611315,4.461293967544782,-1.5177131909733979,8.165053228578504,0.02181661564992912,0.5268712679457882,0.3119776037939864,-27.875,35.5625,-51.25
1772750472.723295,1.8960711234561907,-22.351710875724088,-10.942428829660416,4.39061377509278,-1.5920706116991534,8.39752068668309,0.11126473981463851,0.23234695667174513,0.2596177262341565,-27.875,35.5625,-51.25
1772750472.7707975,2.232492730031047,-22.098944077061294,-10.70636000842981,4.330196449736179,-1.7218373255409944,8.88339124224465,0.21925698728178766,0.11017390903214205,-35.53490357060455,-27.875,35.5625,-51.25
1772750472.8478413,3.026834091972522,-22.936763387193185,-9.289436348666603,4.286644282909788,-1.8516820762087165,9.310431132368038,0.4036073895236887,-0.1538071403320003,0.17453292519943295,-26.75,36.6875,-51.6875
1772750472.8730159,3.548600809542528,-24.731803318644374,-7.989501965725618,4.261005914103725,-1.9380923073171823,9.594621408897012,0.7024950239277177,-0.8955720724295904,0.0916297857297023,-26.75,36.6875,-51.6875
1772750472.9559827,4.432058557646823,-29.53146906627319,-4.672486886863002,4.454685903623757,-1.978871792317741,9.586385272581802,0.980656873464314,-1.299179461953279,0.05672320068981571,-27.875,35.1875,-51.1875
1772750473.0294628,5.053703838492477,-36.10332991937236,-0.17539494514573992,4.610338666760648,-1.8956213977073777,9.503966646599356,0.755945732270044,-1.1835513990086548,0.018544123302439753,-34.875,30.6875,-44.5
1772750473.0691836,5.062834230078789,-37.48392613593262,0.321750938114216,4.757410294068109,-1.2414441944518533,9.148057918025671,0.4232423436086249,-1.246819584393449,0.0,-34.875,30.6875,-44.5
1772750473.1290624,4.921495588808497,-40.98470186091361,1.0817635705902469,4.878700601094735,-0.7726454562502856,8.824231730530581,0.17453292519943295,-1.263182046130896,-0.030543261909900768,-36.25,29.25,-41.6875
1772750473.1672826,4.601909756614759,-44.271119143549335,0.9610591938632314,5.05642618503171,-0.46066513280217974,8.424747876225567,-0.22252947962927702,-1.0941032748439454,-0.08835729338221293,-36.25,29.25,-41.6875
1772750473.2609394,4.0872213098545895,-47.56153428647237,0.11011901256709886,5.338611049475561,-0.25639082430334803,7.8310748863953314,-0.32179508083645453,-0.6305001922829515,-0.07090400086226964,-40.5625,28.75,-35.1875
1772750473.2966049,3.961268071307311,-48.38338396961201,-0.4530115039112082,5.77059507918578,-0.13048388901287578,6.960986280985786,-0.30325095753401476,-0.32070425005395803,-0.032724923474893676,-40.5625,28.75,-35.1875
1772750473.3479557,3.9489823476939088,-47.913484956686226,-0.9971560892473544,6.161774088307034,-0.08683557053752239,6.167864884343866,-0.210530341021816,0.038179077387375956,-0.00545415391248228,-41.6875,28.6875,-34.75
1772750473.410808,4.00418165321701,-46.27952723188119,-1.4835715882898777,6.422099349121378,-0.09792944266367257,5.630016119503227,-0.14944381720201447,0.9348419805994628,0.02945243112740431,-41.6875,28.6875,-34.75
1772750473.4381447,3.902445242953397,-42.759285283541026,-1.888952983578586,6.571927120218383,-0.10531229063695383,5.272083774666157,-0.16035212502697901,1.2697270308258748,0.011999138607461015,-41.75,29.375,-33.5
1772750473.4600806,3.722739887213351,-40.17811618077346,-2.1740335506866324,6.661600493075614,-0.10688038178403747,5.237935611689846,-0.2748893571891069,1.6220653735722301,-0.03490658503988659,-41.75,29.375,-33.5
1772750473.5312788,3.521664287596703,-37.26068263622443,-2.605323194632943,6.630959104897268,-0.0845081469744601,5.462748657030719,-0.3337942194439155,1.7573283906017905,-0.02181661564992912,-41.75,29.375,-33.5
1772750473.5576324,3.0642531311499073,-27.990363472498146,-4.304850418031263,6.4934886935951335,-0.09303545657415996,5.786305036159413,-0.4625122517784973,2.148936641518018,0.02181661564992912,-35.875,30.5,-43.0625
1772750473.5777013,3.0121389662509133,-23.269966336321414,-5.286213336024402,5.9805195953964345,-0.10540050927110929,6.446528049181459,-0.4341506514335895,2.107485071783153,0.1636246173744684,-35.875,30.5,-43.0625
1772750473.627717,3.0414879696901216,-21.089576728576795,-5.73464123817532,5.354809895663342,-0.3511322449339162,7.307383164295574,-0.38942658935123475,1.906772207803805,0.23234695667174513,-32.875,31.25,-46.6875
1772750473.6473572,3.34487256198537,-18.274338098160445,-6.408641350994404,4.754425936223729,-0.5313895285507633,8.064253770924855,-0.2945243112740431,1.523890603147549,0.4046982203061852,-32.875,31.25,-46.6875
1772750473.6672163,3.34487256198537,-18.274338098160445,-6.408641350994404,4.754425936223729,-0.5313895285507633,8.064253770924855,-0.2945243112740431,1.523890603147549,0.4046982203061852,-32.875,31.25,-46.6875
1772750473.6859367,3.6750311421289674,-16.78952516187968,-6.706480967783275,4.237798208188759,-0.6513487371919798,8.64488027410633,-0.14289883250703572,1.210822168571066,0.4363323129985824,-32.875,31.25,-46.6875
1772750473.7082508,4.411353994243141,-14.778421354704891,-7.033604653700378,3.736767976047338,-0.8114629314862114,9.031280725950577,-0.06217735460229799,0.9173886880795195,0.4166973589136462,-23.6875,33.375,-54.5625
1772750473.7329702,4.411353994243141,-14.778421354704891,-7.033604653700378,3.736767976047338,-0.8114629314862114,9.031280725950577,-0.06217735460229799,0.9173886880795195,0.4166973589136462,-23.6875,33.375,-54.5625
1772750473.7667356,5.04718442465767,-13.744817935672772,-7.247690755742084,3.3264003841632928,-0.9180171391962786,9.288425910277056,-0.03490658503988659,0.559596191420682,0.4461497900410505,-23.6875,33.375,-54.5625
1772750473.8275661,6.373220103738335,-10.370962769428008,-7.828336978549994,2.5739787098754974,-0.9659061236947505,9.516569530629315,-0.17889624832941878,0.9599310885968813,0.3948807432637171,-19.0,35.25,-55.25
1772750473.848036,6.646218845501999,-9.092850032532855,-8.082644164802524,2.074226142586454,-0.990691353001687,9.524407284369302,-0.18544123302439752,1.160643952576229,0.3981532356112064,-19.0,35.25,-55.25
1772750473.8702376,6.646218845501999,-9.092850032532855,-8.082644164802524,2.074226142586454,-0.990691353001687,9.524407284369302,-0.18544123302439752,1.160643952576229,0.3981532356112064,-19.0,35.25,-55.25
1772750473.9198816,7.666940347007322,-2.9619191988465596,-8.662670062152943,1.591116364828188,-1.0038405345289811,9.529623221929818,-0.12435470920459599,1.4769848795002014,0.4428772976935611,-15.75,36.0625,-57.1875
1772750473.9634812,8.184239647491511,-0.05846301434560786,-8.897278479503996,1.1960197468588598,-1.0761482903884816,9.566545487183694,-0.12871803233458182,1.6831518973920316,0.5737769915931359,-15.75,36.0625,-57.1875
1772750474.0341709,9.287363411714312,5.589092269559935,-10.303298276887167,0.5082581742891191,-1.2714532093044744,9.708195752017598,-0.38288160465625604,1.4028083862904424,0.5279620987282847,-8.75,37.75,-60.75
1772750474.0655558,9.877274477651175,8.08081635264861,-12.057739599274479,0.050560530544121296,-1.5017798023637536,9.802462420927425,-0.6981317007977318,0.7853981633974483,0.3719732968312915,-8.75,37.75,-60.75
1772750474.1045802,10.482702550950975,9.227021893225022,-13.421625559428064,-0.3175892609895559,-1.6985460293232264,9.821709383864073,-0.6468626540203984,0.47451139038595835,0.39269908169872414,-1.875,40.0,-60.875
1772750474.1382585,11.16830166343825,9.989609889425353,-14.43059365121228,-0.5692790581672225,-1.8863586543664095,9.77096090025668,-0.48432886742842646,0.24870941840919197,0.38069994309126315,-1.875,40.0,-60.875
1772750474.1783516,11.16830166343825,9.989609889425353,-14.43059365121228,-0.5692790581672225,-1.8863586543664095,9.77096090025668,-0.48432886742842646,0.24870941840919197,0.38069994309126315,-1.875,40.0,-60.875
1772750474.2321544,11.902227022416277,10.741776822336652,-15.64034908012776,-0.8973411685810342,-2.0447969754013524,9.737188351313668,-0.3959715740462135,0.16907877128695067,0.28361600344907856,1.25,43.25,-60.6875
1772750474.2682583,11.966554193422148,11.026863629921747,-16.587530364086188,-1.1156628383675313,-2.1167847911049003,9.885313794329472,-0.4341506514335895,0.10799224746714914,0.03490658503988659,1.25,43.25,-60.6875
1772750474.3306692,10.95844682058007,10.613862522331962,-18.785513019959083,-1.1682203935164908,-2.5353714694469662,9.942447159494506,-0.44833145160604343,-0.14726215563702155,-0.37306412761378793,1.5625,44.5625,-59.75
1772750474.357437,10.383313493065012,9.744261057044557,-19.747651687430775,-1.302620160057507,-2.86474071193833,9.767682748526424,-0.3741549583962844,-0.31306843457648287,-0.3665191429188092,2.25,46.0,-59.6875
1772750474.3890927,10.383313493065012,9.744261057044557,-19.747651687430775,-1.302620160057507,-2.86474071193833,9.767682748526424,-0.3741549583962844,-0.31306843457648287,-0.3665191429188092,2.25,46.0,-59.6875
1772750474.4577298,10.969292915613966,5.275547004015481,-20.036003313096504,-1.415388736876643,-3.537393875907014,8.879213593681254,0.017453292519943295,-0.9457502884244273,-0.006544984694978736,-0.1875,46.6875,-58.0625
1772750474.5106156,10.969292915613966,5.275547004015481,-20.036003313096504,-1.415388736876643,-3.537393875907014,8.879213593681254,0.017453292519943295,-0.9457502884244273,-0.006544984694978736,-0.1875,46.6875,-58.0625
1772750474.545332,12.284666698800063,3.1568271647163337,-20.292212219781568,-1.4002056973659933,-3.54495587694307,8.407815904647576,-0.12435470920459599,-0.8988445647770797,0.18544123302439752,-2.875,47.5,-59.0
1772750474.5876842,13.098305262333568,2.5527303386404814,-20.882050345427345,-1.4335880063724722,-3.3894229422081485,8.094106008452883,-0.44833145160604343,-0.385063266221249,0.36324665057131983,-2.875,47.5,-59.0
1772750474.6428976,14.429016202492496,4.065772203133809,-23.05748924861324,-1.6397847040140245,-3.1420777081440465,7.958928034465498,-0.6599526234103559,0.23561944901923448,0.4821472058634335,-5.75,46.5625,-56.75
1772750474.6758258,14.387689717617715,5.631101501612905,-23.20449157263133,-1.7770063029264418,-2.9774722179016924,8.0061181828139,0.11671889372712078,0.9370236421644557,0.26070855701665296,-5.75,46.5625,-56.75
1772750474.707055,-22.77331599942721,8.120798387983115,-21.41804163480946,-1.677654376819753,-4.159142221934495,8.98084420085533,0.7155849933176751,0.9882926889417891,0.0272707695624114,-3.5625,49.1875,-56.0
1772750474.7518673,-23.8250428308536,9.163822340133319,-19.790366774108588,-1.6115367798294857,-4.9455304094994705,9.63620370087348,1.050470043544087,0.7254024703601433,-0.1505346479845109,-3.5625,49.1875,-56.0
1772750474.8019543,-24.320114240829998,9.800413600592325,-17.954961499311015,-1.590952039565651,-4.980476654523689,10.07233812729026,0.8323038870447959,0.28579766501407144,-0.10581058590215622,-3.1875,48.0625,-57.1875
1772750474.8438125,-24.358375480826048,9.782975239206682,-16.83275937460639,-1.6107042419398783,-4.695982713138787,10.2655724766176,0.16580627893946132,-0.08290313946973066,0.09817477042468103,-3.1875,48.0625,-57.1875
1772750474.8877394,-24.358375480826048,9.782975239206682,-16.83275937460639,-1.6107042419398783,-4.695982713138787,10.2655724766176,0.16580627893946132,-0.08290313946973066,0.09817477042468103,-3.1875,48.0625,-57.1875
1772750474.9266078,-23.674982570151343,9.74992435392676,-16.3483049424789,-1.5991457590696432,-3.2562806789142233,9.710725420883584,0.1538071403320003,0.11017390903214205,0.04799655442984406,1.1875,27.25,-0.0625
1772750474.9562917,-23.674982570151343,9.74992435392676,-16.3483049424789,-1.5991457590696432,-3.2562806789142233,9.710725420883584,0.1538071403320003,0.11017390903214205,0.04799655442984406,1.1875,27.25,-0.0625
1772750475.0118442,-23.85454042215111,10.461326340638783,-15.689047890073544,-1.5827059536667472,-2.815970087998796,9.45625426973827,0.20180369476184434,0.27379852640661045,-0.001090830782496456,0.0625,43.0,-58.75
1772750475.0494375,-24.666134390749196,11.752697619041163,-15.137531033372897,-1.588491005352376,-2.6266467712630606,9.290251672987399,0.20507618710933373,0.421060682043632,-0.10362892433716332,0.0625,43.0,-58.75
1772750475.0977075,-25.134063135480755,12.274635436673426,-14.837141791515206,-1.8331889355528959,-2.7950240490995553,9.447387735805753,0.1712604328519436,0.25634523388666713,-0.14289883250703572,0.375,41.5,-59.5625
1772750475.1526656,-25.358492397660317,12.003666959149841,-14.281479653312159,-1.9960326746463577,-2.907077246602307,9.57203070053045,0.12435470920459599,-0.18216874067690814,-0.06217735460229799,0.375,41.5,-59.5625
1772750475.1966653,-25.358492397660317,12.003666959149841,-14.281479653312159,-1.9960326746463577,-2.907077246602307,9.57203070053045,0.12435470920459599,-0.18216874067690814,-0.06217735460229799,0.375,41.5,-59.5625
1772750475.2370112,-25.18788741272851,10.935191411941098,-14.116023373747275,-1.9070417731974558,-2.533402429043359,9.654979201201588,-0.022907446432425576,-0.33488505022641196,-0.015271630954950384,3.375,40.6875,-58.75
1772750475.2743976,-24.800662979601608,10.013834614171175,-14.542562654714834,-1.8478193223767165,-2.284726012179098,9.710180501802764,-0.2007128639793479,-0.385063266221249,0.07853981633974483,3.375,40.6875,-58.75
1772750475.2992747,-24.317516036356555,9.577787246777502,-14.66313717201909,-1.8987254590112608,-2.3634277892878397,9.298671381933119,-0.1341721862470641,-0.4494222823885399,0.15707963267948966,2.25,41.75,-60.0625
1772750475.343902,-23.77176906301849,8.795462871196753,-14.603444713733827,-1.9326029242827436,-2.415802942797252,9.024816659517937,0.055632369907319255,-0.34143003492139073,0.1265363707695889,2.25,41.75,-60.0625
1772750475.369469,-23.361692783691957,8.508151232998078,-14.383441732124925,-1.8179984189847374,-2.343614447754746,9.123558784323157,0.07853981633974483,-0.12217304763960307,0.10144726277217041,0.75,41.75,-58.75
1772750475.404391,-23.186225073011215,8.775703520732632,-14.336911518063921,-1.6246514911689434,-2.295573810702285,9.3063494751154,0.003272492347489368,0.12435470920459599,0.10799224746714914,0.75,41.75,-58.75
1772750475.4698918,-22.64347131456963,9.194990640599329,-14.499076660858872,-1.4959812705342344,-2.2669484151002703,9.427994637931832,-0.07526732399225546,0.08399397025222712,0.15162547876700738,0.0625,42.1875,-58.375
1772750475.511108,-22.152174445076422,9.237299997390224,-14.563711083198745,-1.483945133603405,-2.2478985340937503,9.435355677359635,-0.07853981633974483,-0.011999138607461015,0.15707963267948966,0.0625,42.1875,-58.375
1772750475.5522065,-21.65929711578415,9.324122077858181,-14.673469817866382,-1.489315665757675,-2.2352210510850257,9.44025436687064,-0.0719948316447661,-0.017453292519943295,0.17453292519943295,0.375,42.5625,-59.1875
1772750475.5909016,-21.302036425540756,9.430533065593309,-14.750289755642354,-1.5196505885721214,-2.317102343857107,9.473620395384142,-0.05999569303730508,0.007635815477475192,0.1832595714594046,0.375,42.5625,-59.1875
1772750475.6311247,-20.81789271065587,9.544824471629372,-14.907573494974583,-1.5632539227930802,-2.4384956636693427,9.495825114636917,-0.07853981633974483,-0.004363323129985824,0.19634954084936207,0.375,41.5,-60.0625
1772750475.6818638,-20.3332052011137,9.541699961501052,-15.084487382070225,-1.6023067897579282,-2.5226266736594702,9.510602107256672,-0.09272061651219876,-0.06654067773228381,0.2083486794568231,0.375,41.5,-60.0625
1772750475.7703533,-18.62991721767032,9.357610151749643,-14.74360135113632,-1.6623053283880973,-2.5790782453998027,9.537015732146774,0.05345070834232634,-0.17671458676442586,0.36106498900632694,0.5,41.75,-58.375
1772750475.809744,-18.06419287713226,9.076512616932272,-14.566509037211473,-1.6648792819973928,-2.5793865826102422,9.661783136250952,0.03599741582238305,-0.2748893571891069,0.385063266221249,0.5,42.1875,-58.375
1772750475.8424683,-18.06419287713226,9.076512616932272,-14.566509037211473,-1.6648792819973928,-2.5793865826102422,9.661783136250952,0.03599741582238305,-0.2748893571891069,0.385063266221249,0.5,42.1875,-58.375
1772750475.8587658,-17.105132895058443,8.50732939690897,-14.40890624755302,-1.6632471076641138,-2.5795917775794375,9.751504673353695,-0.00545415391248228,-0.38069994309126315,0.3861540970037454,0.5,42.1875,-58.375
1772750475.8972354,-16.087941716084593,7.599283704269161,-14.221183126559213,-1.6554706904632597,-2.57303810912462,9.81121335404033,-0.00545415391248228,-0.46469391334349025,0.4188790204786391,-0.875,41.75,-58.0625
1772750475.940097,-15.326840750365855,6.720749999280714,-14.082723065201982,-1.6369151248550857,-2.511809816952783,9.84425859063298,0.009817477042468103,-0.5181446216858165,0.39706240482870997,-0.875,41.75,-58.0625
1772750475.9690895,-15.326840750365855,6.720749999280714,-14.082723065201982,-1.6369151248550857,-2.511809816952783,9.84425859063298,0.009817477042468103,-0.5181446216858165,0.39706240482870997,-0.875,41.75,-58.0625
1772750476.0401785,-13.697867469117908,4.615377748792956,-14.242880712232708,-1.3633220274456357,-2.443946569199767,9.534218487830572,-0.11344640137963143,-0.3948807432637171,0.20725784867432664,-1.5625,42.5625,-57.5625
1772750476.0652087,-13.697867469117908,4.615377748792956,-14.242880712232708,-1.3633220274456357,-2.443946569199767,9.534218487830572,-0.11344640137963143,-0.3948807432637171,0.20725784867432664,-1.5625,42.5625,-57.5625
1772750476.08666,-13.453800303314654,4.373749959743454,-14.505561181560493,-1.1849198516676651,-2.5329444138140014,9.278578866771376,-0.16689710972195776,-0.1734420944169365,0.10471975511965978,-3.75,43.1875,-56.875
1772750476.1299698,-13.539002798037021,4.777489794249475,-15.68281527962718,-0.890236125297123,-2.777557817598282,8.91166836711985,-0.1308996938995747,0.23343778745424157,-0.008726646259971648,-5.0,44.25,-56.5
1772750476.1980333,-14.005649133915469,5.762434304290805,-16.29932841703726,-0.8065293460645584,-2.9021438880634385,8.844208045534991,-0.09817477042468103,0.43196898986859655,-0.05781403147231216,-5.0,44.25,-56.5
1772750476.2631779,-15.100401032985841,7.068783189567351,-16.657974461078684,-0.8545218824781797,-3.001780084777001,8.903012418028336,-0.10362892433716332,0.5345070834232635,-0.08399397025222712,-3.75,43.5625,-57.25
1772750476.301861,-16.217028452539328,8.470311909637598,-17.092037552117656,-0.9667430603253506,-3.068086860680632,9.015738528595802,-0.12871803233458182,0.545415391248228,-0.1090830782496456,-3.75,43.5625,-57.25
1772750476.3214962,-16.81672723527622,9.445597774121095,-17.49089810936653,-1.2889632669315816,-3.041965933495572,9.227906075945382,-0.13744467859455345,0.47669305195095124,-0.12980886311707826,-1.25,43.5625,-56.5
1772750476.3539665,-17.804734580759263,10.020447582343042,-17.77891493387605,-1.5234678852363917,-3.0245827482437906,9.379136543761689,-0.1265363707695889,0.3981532356112064,-0.14835298641951802,-1.25,43.5625,-56.5
1772750476.3806615,-17.804734580759263,10.020447582343042,-17.77891493387605,-1.5234678852363917,-3.0245827482437906,9.379136543761689,-0.1265363707695889,0.3981532356112064,-0.14835298641951802,-1.25,43.5625,-56.5
1772750476.4306173,-18.745746879974277,10.559320557316312,-18.15420169521045,-1.7798814403495948,-3.036430214592868,9.563406523421408,-0.09490227807719166,-35.4879978469572,-0.15707963267948966,1.6875,44.6875,-58.1875
1772750476.4527931,-19.59469134179546,10.425708960844494,-18.172347870233423,-1.9873180257308551,-3.1346325872009317,9.779699264259348,0.05999569303730508,-0.14835298641951802,-0.11562806294462433,1.6875,44.6875,-58.1875
1772750476.4981887,-19.92934085685152,9.449335492091608,-17.919767751385006,-2.165506096571427,-3.199985169179218,10.2916019549439,0.1090830782496456,-0.36760997370130566,-0.11344640137963143,0.1875,45.0,-58.1875
1772750476.5283275,-19.634269139880683,8.098674432528519,-17.695891517738733,-2.2840882672246536,-3.220060800498357,10.632267477266733,0.09272061651219876,-0.9326603190344699,-0.0719948316447661,0.1875,45.0,-58.1875
1772750476.5598173,-19.68075773733797,6.290161589583404,-17.55592721811259,-2.222508685437321,-3.1330675576621667,10.664960097864824,0.02181661564992912,-1.1966413683986121,-0.07417649320975901,0.1875,45.0,-58.1875
1772750476.603238,-18.877179739022043,1.1346454217479784,-18.115330144227237,-1.9574056772564532,-3.0751745263328782,10.452558852159996,-0.16798794050445423,-1.3777192782930239,-0.1559888018969932,-2.375,44.6875,-58.1875
1772750476.6808558,-18.77180152518971,-2.1508279577651725,-18.88587061822903,-1.4765774213406622,-3.116930041666436,9.956626354844957,-0.2454369260617026,-0.9752027195518317,-0.38724492778624187,-2.375,44.6875,-58.1875
1772750476.7812712,-21.063395309391048,-5.898336258863695,-18.47150808729612,-0.27732118350514695,-3.2579215455605217,8.994680306267027,0.2748893571891069,-0.11671889372712078,-0.607592745850526,-10.5625,46.5,-54.875
1772750476.877364,-23.249167560448633,-6.472539687901414,-17.365778023002182,0.0863998985507966,-3.1515732371541643,8.862655334952803,0.24652775684419906,0.07526732399225546,-0.7003133623627247,-13.875,45.0,-54.0
1772750476.9129415,-24.992021355531474,-6.757211303555605,-16.63034004876643,0.39869956148202607,-3.0473485088249848,8.878492654285653,0.2301652951067522,0.12544553998709243,-0.806123948264881,-13.875,45.0,-54.0
1772750476.9464245,-26.88899200954459,-6.805156117323673,-15.951466054813535,0.6165668336688983,-2.9077407705347103,8.889032213387216,0.2007128639793479,0.23234695667174513,-0.8268497331323136,-14.6875,43.875,-54.875
1772750476.9892666,-28.781058057513786,-6.311922550111575,-15.346719063349909,0.7615550695723661,-2.811488268515834,8.892701060527397,0.16907877128695067,0.47669305195095124,-0.7406741013150936,-14.6875,43.875,-54.875
1772750477.0112233,-30.44857655202506,-5.047697118409091,-14.741239516433028,0.8580431209414064,-2.7474333036331706,8.794789286095897,0.20725784867432664,0.7897614865274342,-0.5486878835957173,-13.875,41.5625,-54.375
1772750477.0325255,-30.44857655202506,-5.047697118409091,-14.741239516433028,0.8580431209414064,-2.7474333036331706,8.794789286095897,0.20725784867432664,0.7897614865274342,-0.5486878835957173,-13.875,41.5625,-54.375
1772750477.0514455,-31.499074875617698,-3.6550592432914337,-14.21593806947513,0.9088743944560681,-2.7048054400446,8.729630093957919,0.2825251726665821,1.0221084431991792,-0.3490658503988659,-13.875,41.5625,-54.375
1772750477.0719836,-31.499074875617698,-3.6550592432914337,-14.21593806947513,0.9088743944560681,-2.7048054400446,8.729630093957919,0.2825251726665821,1.0221084431991792,-0.3490658503988659,-13.875,41.5625,-54.375
1772750477.098999,-32.6590866532562,-1.3976234780435877,-13.450671478769706,0.8958704752550736,-2.739994195449912,8.773240283856268,0.31525009614147576,1.1017390903214206,-0.272707695624114,-12.375,40.0625,-55.5
1772750477.1362672,-33.59774247573374,0.9580452686579997,-12.601881402669026,0.7166158152168187,-2.7634119190879933,8.895925505880822,0.3883357585687383,1.1279190291013355,-0.16035212502697901,-12.375,40.0625,-55.5
1772750477.165775,-34.03078293137858,2.4563590691454986,-11.999570377838157,0.5203862720987702,-2.3809278594050163,9.348878550166885,0.37742745074377376,0.9457502884244273,-0.06326818538479445,-7.5625,38.0625,-58.75
1772750477.1999025,-34.20524940759032,3.4995824627583954,-11.251647139845216,-0.42040421689431484,-1.8042873349863748,10.986437117451691,0.14944381720201447,0.032724923474893676,0.018544123302439753,-7.5625,38.0625,-58.75
1772750477.2383654,-34.01465022303759,2.6097083869684856,-11.524095426366022,-0.7547801725597063,-1.6590133701260292,11.479360362440056,-0.1810779098944117,-0.5017821599483697,0.006544984694978736,-5.375,37.0,-58.25
1772750477.271422,-33.73402304857066,1.012577026566585,-12.395999168305531,-0.9538878538796214,-1.562335169327988,11.533096115666188,-0.6414085001079161,-1.10501158266891,-0.05781403147231216,-5.375,37.0,-58.25
1772750477.3160064,-33.73402304857066,1.012577026566585,-12.395999168305531,-0.9538878538796214,-1.562335169327988,11.533096115666188,-0.6414085001079161,-1.10501158266891,-0.05781403147231216,-5.375,37.0,-58.25
1772750477.3443375,-32.90900612656942,-4.159529175393466,-15.93255862043956,-0.7565745585206503,-1.817382433300909,10.49372856663311,-0.9893835197242855,-1.337358539340655,-0.16907877128695067,-6.875,37.375,-58.0625
1772750477.3746018,-32.65375509428533,-6.104562282372156,-17.471696523888042,-0.1990867518378442,-2.0524158581142475,9.616062052125837,-0.8508480103472357,-1.0493792127615906,-0.1930770485018727,-6.875,37.375,-58.0625
1772750477.416862,-32.65375509428533,-6.104562282372156,-17.471696523888042,-0.1990867518378442,-2.0524158581142475,9.616062052125837,-0.8508480103472357,-1.0493792127615906,-0.1930770485018727,-6.875,37.375,-58.0625
1772750477.4399571,-32.64342463430256,-7.907305687631687,-19.222125090082574,0.3860023052311564,-2.255659540734611,8.88814498748388,-0.3665191429188092,-0.26398104936414235,-0.15489797111449674,-11.25,40.6875,-56.0625
1772750477.476189,-31.81056350463187,-7.795875361982145,-19.35080938206634,0.7753725368375597,-2.4042963879670434,8.40372431233106,-0.10471975511965978,0.24652775684419906,-0.15489797111449674,-11.25,40.6875,-56.0625
1772750477.5169425,-32.947565875184736,-6.197341108180702,-19.1926855142333,1.0211136295918615,-2.6604327996618617,8.228532679472417,0.011999138607461015,0.6959500392327389,-0.19744037163185854,-14.25,43.1875,-53.5625
1772750477.5662117,-34.36719718777423,-3.8027439450635567,-19.041587028627525,1.0240862197606455,-2.8308887204135686,8.449800887263018,0.002181661564992912,0.9882926889417891,-0.1930770485018727,-14.25,43.1875,-53.5625
1772750477.607454,-35.20375234214372,-2.2826391402523263,-19.00454545646187,0.778526178970329,-2.981121460336945,8.777688440015073,-0.007635815477475192,0.8170322560898455,-0.13853550937704992,-11.6875,42.75,-55.5625
1772750477.6654334,-35.68047194981106,-1.5119238539990743,-19.035613630929095,0.3876411188120457,-3.044303441765772,9.343785561188824,-0.05890486225480862,0.044724062082354694,35.6723482491991,-11.6875,42.75,-55.5625
1772750477.6901107,-35.69305025481951,-1.8952082507143306,-19.040520452653467,0.1275114777489339,-3.07966012120304,9.720516871610764,0.006544984694978736,-0.32288591161895097,-0.0719948316447661,-9.0625,42.5,-55.875
1772750477.7353497,-35.52653107639199,-2.7976518335394944,-18.85935822473935,0.027990565020948974,-3.1031895964085536,9.82404243521003,0.12326387842209953,-0.4188790204786391,-0.05345070834232634,-9.0625,42.5,-55.875
1772750477.7659004,-35.135841030971044,-3.7558774270613093,-17.916569230355787,0.15171294668160457,-3.1560178982989955,9.532038213643212,0.32615840396644036,-0.16471544815696484,0.05672320068981571,-9.875,43.1875,-56.25
1772750477.8222997,-35.03945658294889,-3.741926795833391,-17.41296328527163,0.20800684590616916,-3.1640401792156108,9.427657945484318,0.4930555136883981,-0.009817477042468103,0.08072147790473774,-9.875,43.1875,-56.25
1772750477.8901453,-33.653046431055905,-2.9893165957393872,-14.993056617668795,0.3539696818305983,-2.8853349213970003,9.231683910931238,0.3916082509162277,0.19198621771937624,0.06654067773228381,-11.0,41.6875,-56.0
1772750477.9256403,-33.653046431055905,-2.9893165957393872,-14.993056617668795,0.3539696818305983,-2.8853349213970003,9.231683910931238,0.3916082509162277,0.19198621771937624,0.06654067773228381,-11.0,41.6875,-56.0
1772750477.9480236,-33.67881774792913,-2.7533017621272364,-14.739663012657628,0.4061635662311217,-2.743055638887313,9.147492831231236,0.21162117180431245,0.21925698728178766,0.022907446432425576,-10.5625,40.1875,-57.0625
1772750477.9666817,-32.61596783910434,-2.369133643303942,-14.474997400998127,0.4408980132557786,-2.631644807204244,9.098154831581507,0.14289883250703572,0.2585268954516601,-0.017453292519943295,-10.5625,40.1875,-57.0625
1772750478.0363305,-32.01363361961839,-0.9727638543313673,-13.800201736214499,0.464013399741491,-2.54412169643042,9.12218784298061,0.18980455615438332,0.44724062082354693,-0.028361600344907856,-9.875,39.5,-57.5625
1772750478.0536475,-31.385696891071138,-0.11566975905209914,-13.445725563123801,0.4392550907441139,-2.4189738097612614,9.138181543600385,0.21162117180431245,0.5345070834232635,-0.01090830782496456,-9.875,39.5,-57.5625
1772750478.0676548,-31.385696891071138,-0.11566975905209914,-13.445725563123801,0.4392550907441139,-2.4189738097612614,9.138181543600385,0.21162117180431245,0.5345070834232635,-0.01090830782496456,-9.875,39.5,-57.5625
1772750478.0893822,-31.527692354868684,0.5409509080664183,-13.21141225781686,0.23210734535758762,-2.1684337038104617,9.021710927823367,0.20398535632683726,0.6174102228929941,0.016362461737446838,-9.875,39.5,-57.5625
1772750478.120293,-30.858380782878296,2.009239576922537,-12.827342355391586,0.050766382599637755,-1.9113840459189446,8.94420103408579,0.17235126363444003,0.6839509006252779,0.04145156973486533,-8.0,38.25,-58.0
1772750478.1379013,-30.16577927411717,3.184054271522054,-12.55979391996019,-0.14350645996551992,-1.7403203700249632,9.059874651011647,0.16144295580947549,0.7155849933176751,0.05781403147231216,-8.0,38.25,-58.0
1772750478.1650634,-30.16577927411717,3.184054271522054,-12.55979391996019,-0.14350645996551992,-1.7403203700249632,9.059874651011647,0.16144295580947549,0.7155849933176751,0.05781403147231216,-8.0,38.25,-58.0
1772750478.1909084,-30.29969196810264,3.8781644951957936,-12.34228608383784,-0.4534288987180319,-1.8472567773070656,9.4412593162829,0.21380283336930536,0.6119560689805118,0.00545415391248228,-8.0,38.25,-58.0
1772750478.210049,-29.966209548789713,4.850214207422016,-11.573208735512358,-0.7165457186717731,-2.099057793990611,9.731862779455572,0.31306843457648287,0.28688849579656794,-0.11126473981463851,-4.6875,37.875,-58.75
1772750478.2310116,-30.190996467456017,4.919568853984026,-11.236695832243237,-0.8916470231435237,-2.2666285577918517,9.995503483797304,0.3196134192714616,0.06654067773228381,-0.19525871006686563,-4.6875,37.875,-58.75
1772750478.2520075,-29.669195398806192,4.866325597648517,-10.917491829571748,-0.9613434213572681,-2.3012074599451484,10.170953427477091,0.29561514205653955,-0.028361600344907856,-0.2203478180642841,-4.6875,37.875,-58.75
1772750478.32549,-29.513572258713015,4.456553041180316,-10.303606235149674,-1.0077255958087334,-2.2004501998857036,10.277678069969742,0.17998707911191522,-0.10035643198967395,-0.18980455615438332,-2.875,36.75,-59.5625
1772750478.3691375,-29.170351465852846,4.301281552678999,-10.052589998793254,-1.038592414783346,-2.093256028360653,10.201517212234176,0.1189005552921137,-0.032724923474893676,-0.15271630954950383,-2.875,36.75,-59.5625
1772750478.4280703,-28.90039188636111,4.443705998253883,-9.892564349450122,-1.0357181560547546,-1.9215661534285062,9.970196979988435,0.06872233929727672,0.07417649320975901,-0.13308135546456762,-3.875,35.6875,-60.0
1772750478.4617682,-29.13052354342742,4.703214832033412,-9.829582034173802,-0.9903189167832988,-1.7404062254163442,9.816255949445202,0.003272492347489368,0.18871372537188688,-0.11017390903214205,-3.875,35.6875,-60.0
1772750478.5155203,-28.617937900410073,5.032155124283887,-9.802760148320266,-0.9366904482396413,-1.619846317013244,9.727190360081943,-0.009817477042468103,0.22252947962927702,-0.09053895494720585,-3.875,35.6875,-60.0
1772750478.5823996,-27.310642265444137,6.184773259631023,-9.597325832865401,-0.9240821369096123,-1.4728415824106125,9.702042065961844,-0.0272707695624114,0.07417649320975901,0.05345070834232634,-3.875,34.5625,-59.5625
1772750478.6375926,-26.43204384477232,6.391488338100557,-9.632502819540973,-1.0666602786537838,-1.3821185279961372,9.75661684255462,-0.1090830782496456,0.05345070834232634,0.10144726277217041,-2.5,35.0,-58.75
1772750478.6875684,-25.652262753694064,6.6739520673637225,-10.006803116273304,-1.0945383464097802,-1.3780647450086017,9.734332764561207,-0.18544123302439752,0.07635815477475191,0.11453723216212788,-2.0625,35.25,-59.0625
1772750478.7222629,-25.652262753694064,6.6739520673637225,-10.006803116273304,-1.0945383464097802,-1.3780647450086017,9.734332764561207,-0.18544123302439752,0.07635815477475191,0.11453723216212788,-2.0625,35.25,-59.0625
1772750478.7540843,-25.52920533892173,6.7977938683483625,-10.20593016153246,-1.1130908890829738,-1.42888878503123,9.702777401049458,-0.2203478180642841,0.09926560120717749,0.12762720155208535,-2.0625,35.25,-59.0625
1772750478.8308756,-23.938021932098827,7.910470851085668,-10.602854958298552,-1.05565641687103,-1.4941366899468107,9.62880384219489,0.06981317007977318,0.17998707911191522,0.09272061651219876,-2.0625,36.0625,-59.0625
1772750478.8714101,-23.938021932098827,7.910470851085668,-10.602854958298552,-1.05565641687103,-1.4941366899468107,9.62880384219489,0.06981317007977318,0.17998707911191522,0.09272061651219876,-2.0625,36.0625,-59.0625
1772750478.8883774,-23.773968963013637,8.156777645274659,-10.555606145420631,-1.080525175899909,-1.623212277535204,9.706141539611004,0.018544123302439753,0.12544553998709243,0.12435470920459599,-0.1875,37.1875,-60.0
1772750478.9361641,-23.15316422712643,8.192518188476988,-10.650374480221451,-1.1873930733290106,-1.7492519796943236,9.791060030395935,-0.039269908169872414,-0.06217735460229799,0.12544553998709243,-0.1875,37.1875,-60.0
1772750479.0248587,21.91589438888385,-11.228652744630912,7.185821475171055,-1.4762022138867288,-1.9896545045972562,9.561119108877447,0.02945243112740431,-0.10035643198967395,0.11235557059713497,-1.375,35.6875,-60.0
1772750479.0608876,21.91589438888385,-11.228652744630912,7.185821475171055,-1.4762022138867288,-1.9896545045972562,9.561119108877447,0.02945243112740431,-0.10035643198967395,0.11235557059713497,-1.375,35.6875,-60.0
1772750479.10312,-21.954442664455147,7.583224776475617,-10.120076438634046,-1.3479414373904275,-2.0711659068495822,9.613981953109533,0.044724062082354694,0.0272707695624114,0.0545415391248228,-1.375,35.0,-59.0625
1772750479.1512678,-21.842403875376323,7.5626034405605,-10.006356473695945,-1.308488709091148,-2.0373247809111703,9.659481509215535,0.044724062082354694,0.006544984694978736,0.0545415391248228,-1.375,35.0,-59.0625
1772750479.2355292,-21.184106007476057,6.344765431761886,-10.08270447940614,-1.2822333591238295,-2.0047685545073453,9.82356542383351,-0.06981317007977318,-0.4385139745635753,0.11671889372712078,-2.0625,37.1875,-59.5
1772750479.2719615,-20.72049918919063,5.39305192997035,-10.207003471753678,-1.2647607170120556,-1.9295809621953677,10.176954590708663,-0.1090830782496456,-0.6141377305455047,0.1734420944169365,-2.0625,37.1875,-59.5
1772750479.3078167,-19.82992047441524,3.8011143467934776,-10.458802422773951,-1.1929208581371225,-1.8795444594121855,10.412131133648423,-0.14835298641951802,-0.755945732270044,0.2585268954516601,-2.875,36.375,-59.5
1772750479.332691,-19.82992047441524,3.8011143467934776,-10.458802422773951,-1.1929208581371225,-1.8795444594121855,10.412131133648423,-0.14835298641951802,-0.755945732270044,0.2585268954516601,-2.875,36.375,-59.5
1772750479.35959,-19.002496356115245,2.390436593320349,-10.627713403581698,-1.0481039950473983,-1.8462457257543374,10.461594921246494,-0.12871803233458182,-0.9261153343394911,0.3425208657038872,-2.875,36.375,-59.5
1772750479.40313,-17.21790726170145,-0.16600926071144217,-10.686273864160446,-0.7276075059811458,-1.7739091148664763,10.243629141297344,-0.04581489286485115,-1.0471975511965976,0.5028729907308662,-5.0625,37.5,-58.25
1772750479.4277153,-15.672926802644714,-1.597743489260518,-10.549515610669431,-0.40727709805370105,-1.6689030093490649,9.911249093968598,0.13853550937704992,-0.9795660426818175,0.8039422866998881,-5.0625,37.5,-58.25
1772750479.4545267,-15.672926802644714,-1.597743489260518,-10.549515610669431,-0.40727709805370105,-1.6689030093490649,9.911249093968598,0.13853550937704992,-0.9795660426818175,0.8039422866998881,-5.0625,37.5,-58.25
1772750479.4834256,-12.840274308107375,-3.2131672039257517,-9.946080862171916,0.08688859351172301,-1.562226390341771,9.482656959545928,0.30543261909900765,-0.6806784082777885,0.9686577348568529,-9.875,38.6875,-56.25
1772750479.5275028,-12.840274308107375,-3.2131672039257517,-9.946080862171916,0.08688859351172301,-1.562226390341771,9.482656959545928,0.30543261909900765,-0.6806784082777885,0.9686577348568529,-9.875,38.6875,-56.25
1772750479.5718954,-6.955179946750961,-3.2436710018530976,-8.49617317708252,0.601153043347161,-1.3938486280369995,9.285265048279541,0.35997415822383044,-0.039269908169872414,1.3929909092479742,-12.75,39.25,-54.875
1772750479.5959477,-3.9809232284165006,-3.0129297824112977,-8.142222390779422,0.6375635662477107,-1.5196754638447676,9.5611481025231,0.19525871006686563,-0.09381144729469522,1.327541062298187,-12.75,39.25,-54.875
1772750479.6373596,-2.011106114899163,-3.1402218148755088,-8.258442561385825,0.5848567932374896,-1.6167922643262613,9.76481586355046,-0.05235987755982989,-0.27707101875409984,1.1279190291013355,-12.5,39.25,-56.0625
1772750479.6809528,0.4985647034511027,-3.1258188971614156,-8.739877585835194,0.5297103543285039,-1.6814224101809505,10.177998755103713,-0.17889624832941878,-0.1308996938995747,1.1202832136238603,-12.5,39.25,-56.0625
1772750479.7018552,1.712338237785938,-2.8328980222296387,-9.057077584151207,0.49301101526066027,-1.483585007354216,10.687125173389438,-0.21925698728178766,0.04908738521234052,1.126828198318839,-12.5,39.25,-56.0625
1772750479.7506976,4.062244214555244,-1.8435846712394386,-9.792455800770027,0.5421804726305158,-1.3251655321030635,11.025943117443846,-0.28907015736156083,0.2945243112740431,1.114829059711378,-12.875,40.1875,-55.0
1772750479.7670538,4.062244214555244,-1.8435846712394386,-9.792455800770027,0.5421804726305158,-1.3251655321030635,11.025943117443846,-0.28907015736156083,0.2945243112740431,1.114829059711378,-12.875,40.1875,-55.0
1772750479.8044224,6.659561148341192,-0.8713710675372222,-10.630863430313706,0.6284239845684371,-1.2130489175702748,10.926946838757646,-0.3687008044838021,0.13308135546456762,1.327541062298187,-12.875,40.1875,-55.0
1772750479.8400586,12.025101221603526,-0.22161457794130937,-11.683041608736698,0.6925083017746091,-0.967835865950062,10.499793856762379,-0.26725354171163174,-0.21598449493429828,1.7431475904293365,-9.5625,43.875,-55.0625
1772750479.895939,17.680655073057864,-0.3521475607550975,-12.658544102522844,0.7351556990065876,-0.8046493193060777,10.215528318855986,-0.3752457891787809,-0.4690572364734761,1.9013180538913228,-9.5625,43.875,-55.0625
1772750479.9487615,26.427315890025664,-0.5795676563412985,-13.18254249806412,0.6832543844861617,-0.8532707456716858,10.026352778833406,-0.022907446432425576,-0.6490443155853913,2.6299930165989553,-8.875,47.6875,-56.0
1772750479.9697022,29.440163307440656,-0.5968378460138245,-13.187360540904969,0.34765458578974556,-1.4609869754400115,9.776689437006807,-0.001090830782496456,-0.6294093615004551,2.6136305548615084,-8.875,47.6875,-56.0
1772750480.0229862,35.91325754518264,-0.7719645054331322,-13.45473285406076,0.10424599840875406,-2.022635587959746,9.610541271943472,-0.07526732399225546,-0.6065019150680295,2.272200519940118,-6.875,52.75,-53.5625
1772750480.0357463,35.91325754518264,-0.7719645054331322,-13.45473285406076,0.10424599840875406,-2.022635587959746,9.610541271943472,-0.07526732399225546,-0.6065019150680295,2.272200519940118,-6.875,52.75,-53.5625
1772750480.0708792,37.99904100076265,-0.9034341139556143,-13.581771011973858,-0.10791637305100538,-2.3964064655655353,9.366167055797662,-0.08726646259971647,-0.5486878835957173,1.7540558982543013,-6.875,52.75,-53.5625
1772750480.1237204,45.55802414841376,-2.131122766733566,-13.76665928886882,-0.3430695525294257,-2.2368423728104023,9.040682475936604,0.08944812416470939,-0.6032294227205401,1.102829921103917,-6.1875,54.5,-53.6875
1772750480.163852,45.55802414841376,-2.131122766733566,-13.76665928886882,-0.3430695525294257,-2.2368423728104023,9.040682475936604,0.08944812416470939,-0.6032294227205401,1.102829921103917,-6.1875,54.5,-53.6875
1772750480.213348,48.82180816728916,-3.4595110035401175,-13.694716119979844,-0.7168826978485896,-2.44707018776776,8.577888818751925,-0.030543261909900768,-0.272707695624114,0.26070855701665296,-4.875,56.0625,-52.75
1772750480.2525067,48.82180816728916,-3.4595110035401175,-13.694716119979844,-0.7168826978485896,-2.44707018776776,8.577888818751925,-0.030543261909900768,-0.272707695624114,0.26070855701665296,-4.875,56.0625,-52.75
1772750480.3049154,48.0972398085981,-3.7113226002793707,-13.754749001199267,-0.8283141565823228,-2.9297463285415826,8.602010814414081,-0.03599741582238305,0.015271630954950384,-0.30543261909900765,-5.0625,54.875,-53.0
1772750480.3472764,45.035499243017256,-3.500822320510678,-13.570552685919319,-0.7519405207692949,-3.3178641425271675,8.77862909501823,0.0,0.3916082509162277,-1.3777192782930239,-5.0625,54.875,-53.0
1772750480.3792286,45.035499243017256,-3.500822320510678,-13.570552685919319,-0.7519405207692949,-3.3178641425271675,8.77862909501823,0.0,0.3916082509162277,-1.3777192782930239,-5.0625,54.875,-53.0
1772750480.439257,38.09268345406309,-4.800738964991289,-13.281767184396735,-0.48368245830937767,-3.6865408985160535,9.377862673658814,-0.05126904677733343,0.0,-1.906772207803805,-7.5,54.1875,-53.0625
1772750480.4754295,24.796581019078403,-16.414531812107988,-13.116346168888205,-0.1807835763455356,-3.800799190092408,10.092172941973308,-0.37960911230876665,-1.7606008829492799,-2.3005621202850257,-11.875,50.0625,-52.75
1772750480.5624945,18.01618300605958,-25.913241394547743,-12.120991279511204,1.316423021398513,-3.041214523937111,9.061223476323528,-0.2476185876266955,-1.710422666954443,-1.5849771269673505,-21.75,45.875,-49.375
1772750480.6261086,16.142926618095267,-28.922403565922888,-11.513592055511957,2.0468539128938055,-2.629359512112742,8.68950681031373,-0.11999138607461016,-1.5053464798451093,-1.2806353386508393,-28.1875,43.5625,-45.25
1772750480.6734257,16.142926618095267,-28.922403565922888,-11.513592055511957,2.0468539128938055,-2.629359512112742,8.68950681031373,-0.11999138607461016,-1.5053464798451093,-1.2806353386508393,-28.1875,43.5625,-45.25
1772750480.7112887,12.977865229117757,-33.75051268473868,-10.005324017970903,2.6098850810045797,-2.3084430385630874,8.385266622407013,-0.08072147790473774,-1.088649120931463,-1.0133817969392076,-28.1875,43.5625,-45.25
1772750480.7400544,11.138665101046394,-36.35159562520438,-9.065826764011865,3.1484865075706976,-1.770400874677713,8.212904181306552,-0.06872233929727672,-1.064650843716541,-0.8824821030396329,-34.5,38.6875,-40.5625
1772750480.7862697,8.773845008790307,-38.7862663939288,-8.038979746706497,3.6106182033051923,-1.4123398249367805,7.904182423144296,-0.14835298641951802,-0.7057675162752071,-0.7788531787024695,-34.5,38.6875,-40.5625
1772750480.8204274,6.578320176645038,-40.07875660074517,-7.107460172506127,4.072036823003897,-1.1339128556503613,7.772323999296345,-0.17235126363444003,-0.459239759431008,-0.6839509006252779,-38.375,36.0,-36.0
1772750480.8474116,6.578320176645038,-40.07875660074517,-7.107460172506127,4.072036823003897,-1.1339128556503613,7.772323999296345,-0.17235126363444003,-0.459239759431008,-0.6839509006252779,-38.375,36.0,-36.0
1772750480.8812828,4.4858670828749165,-40.56230851843827,-6.173683912693667,4.522945563444407,-0.8348890197744288,7.68457369118064,-0.17780541754692233,-0.06654067773228381,-0.3959715740462135,-38.375,36.0,-36.0
1772750480.9392965,2.930482216324086,-40.937606355417394,-5.9644740153687446,5.124080346885642,-0.5288484226798891,7.706459522340474,-0.28907015736156083,-0.08290313946973066,-0.4363323129985824,-39.25,32.25,-35.1875
1772750480.9595225,2.072021491776341,-41.61182252052414,-6.806469187932144,5.681349080394271,-0.3251818240109453,7.72102429849659,-0.5497787143782138,-0.24216443371421323,-0.21598449493429828,-39.25,32.25,-35.1875
1772750481.0062242,2.072021491776341,-41.61182252052414,-6.806469187932144,5.681349080394271,-0.3251818240109453,7.72102429849659,-0.5497787143782138,-0.24216443371421323,-0.21598449493429828,-39.25,32.25,-35.1875
1772750481.0515246,1.6464617835271844,-42.021852467769634,-8.438643738559321,6.262947235005744,-0.34351911623843345,7.466453169451044,-0.6697701004528239,-0.14944381720201447,-0.11671889372712078,-40.375,31.5625,-34.5
1772750481.100904,0.9432693509788549,-41.54408704159354,-10.379538607265436,6.666719868559196,-0.52297796474082,7.136473564865744,-1.3068152774307542,0.4177881896961426,-0.2476185876266955,-40.375,31.5625,-34.5
1772750481.1486099,-1.6797759715023646,-37.61184021599795,-18.16159273045274,6.9354260457531645,-0.7795554037325625,6.579019541688677,-2.2471114119426994,1.030835089459151,-0.22471114119426994,-40.0625,33.25,-33.0625
1772750481.1750288,-2.7286264279050867,-35.30188226900695,-22.275767103944727,6.970407201616341,-1.0473130627360367,6.2080401164338,-2.873248281095665,1.5129822953225844,0.06654067773228381,-40.0625,33.25,-33.0625
1772750481.2173967,-4.048591501173859,-32.01186852095183,-27.807721890930747,6.428362891541195,-1.5165275122906021,7.014867640844,-2.8001626186684025,1.5544338650574498,0.19744037163185854,-37.5625,37.875,-36.25
1772750481.2636964,-5.282461753878644,-28.86030990905465,-33.113603767955276,5.8702768674860275,-1.8856513860247572,7.632085026460657,-2.5972680931240615,1.4093533709854211,0.33488505022641196,-37.5625,37.875,-36.25
1772750481.2834642,-5.282461753878644,-28.86030990905465,-33.113603767955276,5.8702768674860275,-1.8856513860247572,7.632085026460657,-2.5972680931240615,1.4093533709854211,0.33488505022641196,-37.5625,37.875,-36.25
1772750481.3211105,-6.348072085031693,-26.039622527998254,-38.05155376309785,5.171055905389387,-2.897329781587131,8.04283630181858,-2.38237442897226,1.2522737383059315,0.39706240482870997,-35.375,41.6875,-37.0
1772750481.3619452,-6.991860944786597,-22.86946817123123,-44.33295758129387,4.665590825436174,-3.667598692157988,8.195762665713389,-2.3354687053249124,0.9730210579868387,0.6108652381980153,-35.375,41.6875,-37.0
1772750481.3869963,-7.455774203349931,-20.97127738842862,-47.899610773058846,4.041529854312756,-4.484609213041437,7.979747840390625,-2.241657258030217,0.9861110273767962,0.6435901616729091,-31.0,49.25,-35.5625
1772750481.4085257,-7.455774203349931,-20.97127738842862,-47.899610773058846,4.041529854312756,-4.484609213041437,7.979747840390625,-2.241657258030217,0.9861110273767962,0.6435901616729091,-31.0,49.25,-35.5625
1772750481.4403512,-8.428470191576404,-18.06877003496838,-53.39619481647846,3.606153579004027,-5.048391258327769,7.555003003767207,-2.107485071783153,0.9217520112095053,0.607592745850526,-31.0,49.25,-35.5625
1772750481.4657993,-9.119049567010537,-16.61263762982924,-56.2657094331115,3.303035084428454,-5.483793922339472,6.907722883607221,-1.844594853201507,0.8312130562622995,-35.25565089028546,-28.5625,58.0,-32.875
1772750481.5037632,-9.961140153315505,-14.999982235199905,-59.74472638873794,3.1013131123438584,-5.847141989033842,6.3799569547212,-1.648245312352145,0.6741334235828098,0.42215151282612845,-28.5625,58.0,-32.875
1772750481.551907,-9.825133850816272,-12.30545257539983,-64.28200248442639,2.900167159157249,-6.159193414408799,5.657427225066819,-1.327541062298187,0.4145156973486533,0.5094179754258449,-26.25,59.875,-30.5
1772750481.6006482,-10.863512333902445,-11.281801657222656,-67.26560783075057,2.769651885966403,-6.801724674104529,5.039442181167661,-1.0341075818066403,0.2814343418840856,0.41996985126113556,-26.25,59.875,-30.5
1772750481.6338766,-10.863512333902445,-11.281801657222656,-67.26560783075057,2.769651885966403,-6.801724674104529,5.039442181167661,-1.0341075818066403,0.2814343418840856,0.41996985126113556,-26.25,59.875,-30.5
1772750481.6689086,-11.223480295790742,-10.888005724676868,-68.8181040911239,2.6827954296090257,-7.684257242083008,4.614799590968761,-0.6250460383704692,0.17671458676442586,-0.019634954084936207,-22.875,64.1875,-25.6875
1772750481.7046382,-11.69889076507089,-11.52191263626548,-70.21185586133944,2.6249934281533824,-8.39868705241608,4.15825888197933,-0.29343348049154666,0.015271630954950384,-0.25089107997418486,-22.875,64.1875,-25.6875
1772750481.749147,-11.693170891097894,-11.821063937199686,-70.43054001460128,2.5263148311435666,-8.874132110488839,3.8544361400407428,-0.08726646259971647,-0.07744898555724837,-0.1308996938995747,-24.25,64.25,-25.0625
1772750481.770771,-11.693170891097894,-11.821063937199686,-70.43054001460128,2.5263148311435666,-8.874132110488839,3.8544361400407428,-0.08726646259971647,-0.07744898555724837,-0.1308996938995747,-24.25,64.25,-25.0625
1772750481.8231316,-11.432555399675001,-11.98030938219531,-70.43374354204441,2.276664183243123,-8.762361187030084,3.642210164081062,0.05126904677733343,-0.14508049407202864,-0.013089969389957472,-24.25,64.25,-25.0625
1772750481.8525043,-10.415207297143292,-11.776264184355654,-69.82411872705322,2.110524465845844,-8.597660869933684,3.367171679506607,0.22143864884678055,-0.25089107997418486,0.14944381720201447,-24.0,64.1875,-24.0625
1772750481.8915164,-9.660077833883687,-11.608401360210905,-68.96062244636668,2.130419696405658,-8.44791330824129,2.9031472569886625,0.717766654882668,-0.385063266221249,0.25416357232167425,-24.0,64.1875,-24.0625
1772750481.924499,-9.660077833883687,-11.608401360210905,-68.96062244636668,2.130419696405658,-8.44791330824129,2.9031472569886625,0.717766654882668,-0.385063266221249,0.25416357232167425,-24.0,64.1875,-24.0625
1772750481.9498935,-8.152224694288392,-11.05474613990551,-64.60946368987491,2.143659750098927,-8.348257978724872,2.5943441872954076,1.3122694313432366,-0.2650718801466388,0.2879793265790644,-24.375,64.375,-22.75
1772750481.9824095,-8.152224694288392,-11.05474613990551,-64.60946368987491,2.143659750098927,-8.348257978724872,2.5943441872954076,1.3122694313432366,-0.2650718801466388,0.2879793265790644,-24.375,64.375,-22.75
1772750482.034292,-7.459735971332911,-10.519694765828818,-59.471527307158354,2.0521175067111255,-8.281938470154667,2.5962361198246615,2.0082194705759755,-0.10035643198967395,0.2912518189265537,-24.375,64.375,-22.75
1772750482.06367,-6.703173612354823,-9.48363853581113,-49.91831949793477,1.9744716077938083,-8.23111335462401,2.8283078875936463,2.6714445863338208,0.04145156973486533,0.34470252726888007,-21.5,59.1875,-32.375
1772750482.0936773,-6.413456301726894,-9.019174778335662,-45.22615036603776,1.6919864216208191,-8.123697350431073,3.631700727852358,2.861249142488204,0.05235987755982989,0.3239767424014474,-21.5,59.1875,-32.375
1772750482.1366816,-6.413456301726894,-9.019174778335662,-45.22615036603776,1.6919864216208191,-8.123697350431073,3.631700727852358,2.861249142488204,0.05235987755982989,0.3239767424014474,-21.5,59.1875,-32.375
1772750482.159185,-6.336555848348855,-8.20659180222477,-36.85857238481767,1.0557507170081888,-7.918408731263286,5.056149402705427,3.0510536986425874,0.17671458676442586,0.2083486794568231,-22.5,57.375,-36.75
1772750482.2048304,-6.7140292136881055,-7.722195458676431,-29.629284297412912,0.6323429628069892,-7.607845639650651,6.728705256365118,3.2604932088819067,0.2748893571891069,-0.055632369907319255,-22.5,57.375,-36.75
1772750482.2584722,-7.26544493020068,-8.040681779694374,-20.01404650276286,0.7887794658194529,-7.053277753838272,8.04042215184342,2.787072649278445,-0.05781403147231216,-0.18653206380689397,-20.6875,46.0,-44.6875
1772750482.3059902,-7.981483226956544,-9.281505538698973,-14.178215609897725,1.3043349510642912,-5.9215335514905085,8.91000998123909,1.9384063004962022,-0.41015237421866746,-0.4014257279586958,-20.6875,46.0,-44.6875
1772750482.3392322,-7.981483226956544,-9.281505538698973,-14.178215609897725,1.3043349510642912,-5.9215335514905085,8.91000998123909,1.9384063004962022,-0.41015237421866746,-0.4014257279586958,-20.6875,46.0,-44.6875
1772750482.3633208,-8.796014937112469,-12.18145751293675,-8.827510863886985,1.647431367362606,-4.994424618458572,9.344871164354638,1.4202616788103857,-0.9337511498169663,-0.37306412761378793,-20.25,34.6875,-50.5625
1772750482.4138906,-9.084148649173644,-14.733501137390466,-6.078910494300331,1.9259348753808299,-3.721802085376587,9.617540865463729,1.1584622910112363,-1.1355548445788106,-0.2519819107566813,-20.25,34.6875,-50.5625
1772750482.493911,-9.476394340034993,-24.084798694902066,1.0931568765022124,2.587986500145873,-2.3112728154071926,9.070655369650186,0.9468411192069238,-1.8031432834666417,0.03599741582238305,-24.6875,26.5625,-50.0625
1772750482.5388079,-9.476394340034993,-24.084798694902066,1.0931568765022124,2.587986500145873,-2.3112728154071926,9.070655369650186,0.9468411192069238,-1.8031432834666417,0.03599741582238305,-24.6875,26.5625,-50.0625
1772750482.5565023,-9.351090297478603,-28.88365290098278,2.8116720715245362,2.923171209071284,-1.5916480273615394,8.899835444107952,0.5235987755982988,-1.686424389739521,0.12326387842209953,-32.1875,17.875,-44.1875
1772750482.5967062,-9.351090297478603,-28.88365290098278,2.8116720715245362,2.923171209071284,-1.5916480273615394,8.899835444107952,0.5235987755982988,-1.686424389739521,0.12326387842209953,-32.1875,17.875,-44.1875
1772750482.6406498,-8.553532201633317,-35.124847123324365,3.910592966985029,3.3235238090905392,-0.7648541520915448,8.786156691843193,0.35124751196385884,-1.423534171157875,0.2301652951067522,-36.5625,16.5625,-40.5
1772750482.6646523,-8.250255968211965,-36.88630103921045,4.174382071566283,3.8575629287573285,-0.21463206399211243,8.596770954037005,0.272707695624114,-1.0417433972841155,0.22252947962927702,-36.5625,16.5625,-40.5
1772750482.6985412,-8.250255968211965,-36.88630103921045,4.174382071566283,3.8575629287573285,-0.21463206399211243,8.596770954037005,0.272707695624114,-1.0417433972841155,0.22252947962927702,-36.5625,16.5625,-40.5
1772750482.7337182,-7.940787085370876,-38.99863935636106,3.4851952261284946,4.423702034848848,0.05118123803502567,8.340277504518841,-0.210530341021816,-0.5705044992456465,0.11780972450961724,-40.875,16.375,-35.875
1772750482.7695792,-8.018424721576928,-39.456511614577906,2.2243883342783994,5.004513099911042,0.22807702120494344,7.888594595669243,-0.9490227807719167,-0.19853120241435498,-0.05345070834232634,-40.875,16.375,-35.875
1772750482.8310933,-8.584227494274028,-39.76248220470857,-2.2080954958213472,5.454593498064287,0.17519849177586036,7.497686649360908,-1.6166112196597477,-0.050178215994836975,-0.15162547876700738,-42.0625,18.1875,-33.0
