timestamp,yaw,pitch,roll,ax,ay,az,gx,gy,gz,mx,my,mz
1772316510.0724108,-0.08551505221967137,1.1228251932992104,-8.710364973653267,-0.18120719309350644,-1.488551735349753,9.7219443637795,-0.001090830782496456,0.001090830782496456,0.0,5.25,1.6875,-58.75
1772316510.3969948,152.62358221082988,1.1230899139718706,-8.711202525019385,-0.18728949097397543,-1.4826632255874512,9.733354714318473,0.001090830782496456,0.0,0.0,7.0625,1.75,-57.5625
1772316510.7130644,151.46553506289166,1.1251094773126107,-8.708686917204096,-0.18737594403593588,-1.4808811587384434,9.749400265377231,0.0,-0.001090830782496456,0.0,6.6875,1.5,-56.75
1772316510.7810495,151.46553506289166,1.1251094773126107,-8.708686917204096,-0.1882537200685411,-1.480586401297246,9.746255771600703,-0.001090830782496456,-0.001090830782496456,-0.002181661564992912,6.6875,1.5,-56.75
1772316510.8294754,151.18288987128466,1.1257217511257969,-8.709852158561919,-0.18700048113460987,-1.4836048144057725,9.753913019599008,0.0,0.001090830782496456,0.001090830782496456,6.6875,1.0625,-57.5625
1772316510.8560681,151.18288987128466,1.1257217511257969,-8.709852158561919,-0.18800385370190406,-1.4857440754259457,9.752604070831847,0.001090830782496456,0.001090830782496456,-0.001090830782496456,6.6875,1.0625,-57.5625
1772316510.8766754,151.18288987128466,1.1257217511257969,-8.709852158561919,-0.18800385370190406,-1.4857440754259457,9.752604070831847,0.001090830782496456,0.001090830782496456,-0.001090830782496456,6.6875,1.0625,-57.5625
1772316510.9101672,151.16013163524465,1.124030953460451,-8.709949228989665,-0.18867158693703237,-1.4871677297377595,9.748387868341897,-0.001090830782496456,0.002181661564992912,0.0,5.5625,1.5,-59.1875
1772316510.9231966,151.16013163524465,1.124030953460451,-8.709949228989665,-0.18867158693703237,-1.4871677297377595,9.748387868341897,-0.001090830782496456,0.002181661564992912,0.0,5.5625,1.5,-59.1875
1772316511.0013826,150.83151216677405,1.1209721492614788,-8.712118538100315,-0.18941167855744306,-1.4887456572260214,9.743714780395083,0.0,-0.001090830782496456,0.0,6.25,1.5,-58.75
1772316511.0377152,-0.36835228896448774,1.1215377402955702,-8.705253512778253,-0.5546034687244182,1.3945329586866775,9.742472144856112,-0.0005257971731248589,0.0009557453263164502,0.0,6.25,1.5,-58.75
1772316511.1205757,-0.4997039625991168,1.1251328524321156,-8.710218808987378,-0.554961375065641,1.3908368481290638,9.738300073078756,0.0014815424994413092,-0.00042994815319159134,-0.001090830782496456,-4.413449805580491,-4.425376912040548,-58.375
1772316511.1647658,-0.4911874971996393,1.1257320878490529,-8.70975570450388,-0.5538810905437823,1.3929203853650345,9.73552360591602,0.0009557453263164502,0.0005257971731248589,0.002181661564992912,-4.413449805580491,-4.425376912040548,-58.375
1772316511.2377832,-0.775442806314894,1.1262707923489454,-8.71150737572286,-0.554541573230079,1.3916668521450857,9.729101157372096,-0.0015773915193745768,0.002867235978949351,0.001090830782496456,-3.487861330970137,-5.200178322511953,-58.75
1772316511.289645,-0.775442806314894,1.1262707923489454,-8.71150737572286,-0.554541573230079,1.3916668521450857,9.729101157372096,-0.0015773915193745768,0.002867235978949351,0.001090830782496456,-3.487861330970137,-5.200178322511953,-58.75
1772316511.33362,-1.0506500367598979,1.1206657168620922,-8.710998855488908,-0.5549201843055763,1.3889294862421424,9.726056718564541,-9.584901993326756e-05,0.0024372878257577593,0.002181661564992912,-6.059079517174964,-4.546038017279533,-58.0
1772316511.3626928,-1.1955549086946613,1.1249732409509299,-8.709105814012721,-0.5567845409119249,1.3900386621709488,9.724030678546722,0.0014815424994413092,-0.00042994815319159134,0.001090830782496456,-6.059079517174964,-4.546038017279533,-58.0
1772316511.4210277,-1.5287861138016212,1.121716144404113,-8.710879077896713,-0.5534819918834195,1.389458339167396,9.719337259839895,9.584901993326756e-05,-0.0024372878257577593,-0.001090830782496456,-5.015811713940639,-4.756762459940151,-58.0
1772316511.441105,-1.5287861138016212,1.121716144404113,-8.710879077896713,-0.5496717872318712,1.3861412783323297,9.716213842119423,-0.0005257971731248589,0.0009557453263164502,0.001090830782496456,-5.015811713940639,-4.756762459940151,-58.0
1772316511.4638708,-1.5287861138016212,1.121716144404113,-8.710879077896713,-0.5471361385990405,1.3839338114005904,9.714135242517312,0.0019114906526329005,0.0010515943462497178,-0.002181661564992912,-5.015811713940639,-4.756762459940151,-58.0
1772316511.4856093,-1.5287861138016212,1.121716144404113,-8.710879077896713,-0.5499919502827453,1.383783234010406,9.716097069408905,0.0024372878257577593,9.584901993326756e-05,-0.001090830782496456,-4.36151413906909,-3.6121332913806525,-58.75
1772316511.5585363,-1.7775963156949754,1.1249626036031013,-8.712466499572532,-0.553504856221712,1.3866138887981325,9.724092866704856,0.002007339672566168,-0.0013856934795080417,0.0,-4.36151413906909,-3.6121332913806525,-58.75
1772316511.6322205,-1.92195476759544,1.1225572922470477,-8.708752532820549,-0.5558426558823637,1.3884976579388786,9.729413980486404,0.0014815424994413092,-0.00042994815319159134,0.0,-3.937083477132839,-3.735304364317264,-58.375
1772316511.7141383,-2.060114134228206,1.1274117097140424,-8.706970052086634,-0.5544675730827595,1.3913636804239329,9.72626489885265,0.0005257971731248589,-0.0009557453263164502,-0.001090830782496456,-3.937083477132839,-3.735304364317264,-58.375
1772316511.7586324,-2.060114134228206,1.1274117097140424,-8.706970052086634,-0.5544675730827595,1.3913636804239329,9.72626489885265,0.0005257971731248589,-0.0009557453263164502,-0.001090830782496456,-3.937083477132839,-3.735304364317264,-58.375
1772316511.7830393,-2.3731582297392553,1.1257370579951695,-8.708956437024185,-0.5506216084814697,1.3948833815371355,9.724169220202933,9.584901993326756e-05,-0.0024372878257577593,-0.003272492347489368,-4.051938298780925,-5.082498993887984,-58.75
1772316511.805719,-2.3731582297392553,1.1257370579951695,-8.708956437024185,-0.5506216084814697,1.3948833815371355,9.724169220202933,9.584901993326756e-05,-0.0024372878257577593,-0.003272492347489368,-4.051938298780925,-5.082498993887984,-58.75
1772316511.8197274,-2.3731582297392553,1.1257370579951695,-8.708956437024185,-0.5480621620015509,1.3972257033103344,9.732809904593768,0.0013856934795080415,0.002007339672566168,0.001090830782496456,-4.051938298780925,-5.082498993887984,-58.75
1772316511.8337324,-2.643503680350803,1.1205973796465607,-8.708976709162563,-0.5492897413188901,1.3971720971199815,9.738560183533101,-0.0014815424994413092,0.00042994815319159134,0.002181661564992912,-4.051938298780925,-5.082498993887984,-58.75
1772316511.8612509,-2.643503680350803,1.1205973796465607,-8.708976709162563,-0.5492897413188901,1.3971720971199815,9.738560183533101,-0.0014815424994413092,0.00042994815319159134,0.002181661564992912,-4.051938298780925,-5.082498993887984,-58.75
1772316511.8850582,-2.643503680350803,1.1205973796465607,-8.708976709162563,-0.5501066816416199,1.397136422799122,9.735696706517764,-9.584901993326756e-05,0.0024372878257577593,0.0,-5.13349104256461,-5.320839427750938,-57.5625
1772316511.9292734,-2.9859093515809643,1.125330316864519,-8.706354680415323,-0.5506503463005752,1.3971126819370985,9.730445982843872,-0.00042994815319159134,-0.0014815424994413092,0.0,-5.13349104256461,-5.320839427750938,-57.5625
1772316511.9465694,-2.9859093515809643,1.125330316864519,-8.706354680415323,-0.5506503463005752,1.3971126819370985,9.730445982843872,-0.00042994815319159134,-0.0014815424994413092,0.0,-5.13349104256461,-5.320839427750938,-57.5625
1772316511.978111,-3.0659598513294823,1.1259726776003374,-8.708983837382227,-0.5510121490579777,1.3970968826586245,9.726951684893322,-9.584901993326756e-05,0.0024372878257577593,0.001090830782496456,-4.752994335129491,-4.326840053691258,-58.0
1772316512.0278475,-3.0659598513294823,1.1259726776003374,-8.708983837382227,-0.5512529247514275,1.3970863684152897,9.724626268641098,-0.0005257971731248589,0.0009557453263164502,0.001090830782496456,-4.752994335129491,-4.326840053691258,-58.0
1772316512.05153,-3.0659598513294823,1.1259726776003374,-8.708983837382227,-0.5512529247514275,1.3970863684152897,9.724626268641098,-0.0005257971731248589,0.0009557453263164502,0.001090830782496456,-4.752994335129491,-4.326840053691258,-58.0
1772316512.074132,-3.0659598513294823,1.1259726776003374,-8.708983837382227,-0.5527316254796443,1.3925361137799996,9.726423841809163,0.002007339672566168,-0.0013856934795080417,-0.004363323129985824,-4.752994335129491,-4.326840053691258,-58.0
1772316512.1093543,-3.0280638032793306,1.122074969360149,-8.706405307401564,-0.5507848219372686,1.3911203653148567,9.727620106672303,-0.0024372878257577593,-9.584901993326756e-05,0.0,-4.542269892468873,-3.2835722504569347,-57.1875
1772316512.1276617,-3.0280638032793306,1.122074969360149,-8.706405307401564,-0.5553509706447073,1.386953410196315,9.728416207575568,-0.0005257971731248589,0.0009557453263164502,0.001090830782496456,-4.542269892468873,-3.2835722504569347,-57.1875
1772316512.1526408,-3.0280638032793306,1.122074969360149,-8.706405307401564,-0.5583896916022845,1.384180348112864,9.728946003833661,0.0005257971731248589,-0.0009557453263164502,-0.002181661564992912,-4.542269892468873,-3.2835722504569347,-57.1875
1772316512.1727102,-3.0280638032793306,1.122074969360149,-8.706405307401564,-0.5583896916022845,1.384180348112864,9.728946003833661,0.0005257971731248589,-0.0009557453263164502,-0.002181661564992912,-4.542269892468873,-3.2835722504569347,-57.1875
1772316512.223274,-2.957086829601614,1.1256130928110002,-8.712850302514363,-0.5604119264548149,1.382334906273461,9.72929857732521,-0.00042994815319159134,-0.0014815424994413092,-0.001090830782496456,-3.937083477132839,-3.735304364317264,-59.5625
1772316512.2440028,-3.036688305380022,1.1214657335040332,-8.706854611904555,-0.5633700963242982,1.3840376477031087,9.729533211045332,0.0005257971731248589,-0.0009557453263164502,-0.001090830782496456,-3.937083477132839,-3.735304364317264,-59.5625
1772316512.2787938,-3.036688305380022,1.1214657335040332,-8.706854611904555,-0.5578646054448797,1.3854647310747723,9.729689357165043,-0.0014815424994413092,0.00042994815319159134,0.001090830782496456,-3.937083477132839,-3.735304364317264,-59.5625
1772316512.3056068,-3.036688305380022,1.1214657335040332,-8.706854611904555,-0.5578646054448797,1.3854647310747723,9.729689357165043,-0.0014815424994413092,0.00042994815319159134,0.001090830782496456,-3.937083477132839,-3.735304364317264,-59.5625
1772316512.341434,-3.2035702394247942,1.1241427355636873,-8.705325273196836,-0.5558131579299574,1.3893453014758832,9.723103047248806,-0.00042994815319159134,-0.0014815424994413092,-0.001090830782496456,-4.81324625292942,-4.217319706716686,-58.375
1772316512.3637397,-3.2035702394247942,1.1241427355636873,-8.705325273196836,-0.5558131579299574,1.3893453014758832,9.723103047248806,-0.00042994815319159134,-0.0014815424994413092,-0.001090830782496456,-4.81324625292942,-4.217319706716686,-58.375
1772316512.4012349,-3.2035702394247942,1.1241427355636873,-8.705325273196836,-0.5544479425249469,1.3919277777290109,9.718719931573451,0.0009557453263164502,0.0005257971731248589,0.0,-4.81324625292942,-4.217319706716686,-58.375
1772316512.4228792,-3.23231004159307,1.1219458073553064,-8.705531273992847,-0.5564702692822022,1.3920339916623492,9.719148128761434,-0.0009557453263164502,-0.0005257971731248589,0.001090830782496456,-4.81324625292942,-4.217319706716686,-59.5625
1772316512.4427164,-3.23231004159307,1.1219458073553064,-8.705531273992847,-0.5564702692822022,1.3920339916623492,9.719148128761434,-0.0009557453263164502,-0.0005257971731248589,0.001090830782496456,-4.81324625292942,-4.217319706716686,-59.5625
1772316512.460526,-3.23231004159307,1.1219458073553064,-8.705531273992847,-0.5578161051482856,1.3921046758484987,9.726123312621398,0.0005257971731248589,-0.0009557453263164502,-0.003272492347489368,-4.81324625292942,-4.217319706716686,-59.5625
1772316512.479846,-3.1747494202029656,1.1244129029896353,-8.711821510627825,-0.5541684863593899,1.3908332481909202,9.730765219562295,-0.0014815424994413092,0.00042994815319159134,-0.001090830782496456,-4.81324625292942,-4.217319706716686,-59.5625
1772316512.5096755,-3.1747494202029656,1.1244129029896353,-8.711821510627825,-0.5517410368019515,1.3899871272875794,9.733854356777965,-0.0009557453263164502,-0.0005257971731248589,0.002181661564992912,-5.136472819179625,-3.1111327483456783,-59.1875
1772316512.537621,-3.1747494202029656,1.1244129029896353,-8.711821510627825,-0.5517410368019515,1.3899871272875794,9.733854356777965,-0.0009557453263164502,-0.0005257971731248589,0.002181661564992912,-5.136472819179625,-3.1111327483456783,-59.1875
1772316512.5740547,-3.152712597818992,1.1260818458645667,-8.71153346009112,-0.5562812489266349,1.3936733728308972,9.735910143087068,9.584901993326756e-05,-0.0024372878257577593,0.0,-5.136472819179625,-3.1111327483456783,-59.1875
1772316512.6100588,-3.2122021619735754,1.1235329743352669,-8.705773759043812,-0.5593027093781191,1.3961265280619144,9.7305880224965,-0.0014815424994413092,0.00042994815319159134,-0.001090830782496456,-4.413449805580491,-4.425376912040548,-57.5625
1772316512.6428711,-3.225607640071991,1.1224748358360135,-8.705612161521742,-0.5613134575566571,1.3977590754646168,9.733736434110098,0.0005257971731248589,-0.0009557453263164502,0.0,-4.413449805580491,-4.425376912040548,-57.5625
1772316512.6655676,-3.2122021619735754,1.1235329743352669,-8.705773759043812,-0.5610391928429773,1.395914655165531,9.735831666868885,-0.0009557453263164502,-0.0005257971731248589,0.0,-4.963876047429239,-3.943518839280255,-58.75
1772316512.697154,-3.2122021619735754,1.1235329743352669,-8.705773759043812,-0.5610391928429773,1.395914655165531,9.735831666868885,-0.0009557453263164502,-0.0005257971731248589,0.0,-4.963876047429239,-3.943518839280255,-58.75
1772316512.7304022,-3.2122021619735754,1.1235329743352669,-8.705773759043812,-0.560856672739761,1.3946872140600146,9.737226020864576,-0.0014815424994413092,0.00042994815319159134,-0.001090830782496456,-4.963876047429239,-3.943518839280255,-58.75
1772316512.7729673,-3.2189050135209305,1.1230038914990148,-8.70569298987465,-0.5550380854950866,1.3900578389135738,9.737652495697626,-0.003058934018815886,0.003297184132140942,-0.001090830782496456,-4.5339536411803465,-4.206336218091403,-58.75
1772316512.8182266,-3.2122021619735754,1.1235329743352669,-8.705773759043812,-0.5523197453126988,1.3894711010753944,9.735092650402793,-0.0013856934795080415,-0.002007339672566168,0.001090830782496456,-4.210884344569271,-3.8859341588170837,-58.375
1772316512.8407247,-3.240943074897204,1.1213358316465776,-8.705979445906477,-0.553441582646004,1.3874682384334096,9.730043990247108,0.00042994815319159134,0.0014815424994413092,0.0,-4.210884344569271,-3.8859341588170837,-58.375
1772316512.8774781,-3.2122021619735754,1.1235329743352669,-8.705773759043812,-0.5574129431895101,1.3919970804362793,9.726684163310727,-0.00042994815319159134,-0.0014815424994413092,-0.001090830782496456,-3.8768315593329112,-3.8448247112918366,-58.0
1772316512.9767818,-3.2855494357120567,1.1246997861341357,-8.708484037885079,-0.5650835804392934,1.3914003983357526,9.728531497559985,0.0019114906526329005,0.0010515943462497178,0.001090830782496456,-3.7563277237330555,-4.063865405240981,-58.75
1772316513.022479,-3.29225107901645,1.1241705738760224,-8.708402952028125,-0.5635481675063396,1.3916830265673497,9.732367839737737,0.0014815424994413092,-0.00042994815319159134,-0.002181661564992912,-3.7563277237330555,-4.063865405240981,-58.75
1772316513.0544143,-3.29225107901645,1.1241705738760224,-8.708402952028125,-0.5635481675063396,1.3916830265673497,9.732367839737737,0.0014815424994413092,-0.00042994815319159134,-0.002181661564992912,-3.7563277237330555,-4.063865405240981,-58.75
1772316513.1177273,-3.263510715791836,1.1263684357490027,-8.70819756009796,-0.5609139721861774,1.388940250139479,9.73492088260228,0.0005257971731248589,-0.0009557453263164502,0.0,-4.36151413906909,-3.6121332913806525,-58.0
1772316513.1554444,-3.372298278470461,1.12480448627995,-8.711032976017481,-0.5591609446264992,1.387114963065551,9.736619904109276,-0.00042994815319159134,-0.0014815424994413092,-0.002181661564992912,-4.36151413906909,-3.6121332913806525,-58.0
1772316513.1837308,-3.372298278470461,1.12480448627995,-8.711032976017481,-0.5591609446264992,1.387114963065551,9.736619904109276,-0.00042994815319159134,-0.0014815424994413092,-0.002181661564992912,-4.36151413906909,-3.6121332913806525,-58.0
1772316513.2223206,-3.372298278470461,1.12480448627995,-8.711032976017481,-0.5579943243681343,1.3859002549076447,9.737750583942868,0.0010515943462497178,-0.0019114906526329005,-0.001090830782496456,-4.030128591169487,-4.214495199740801,-60.0
1772316513.2532024,-3.41637676057606,1.12146546039855,-8.711601554756442,-0.5588303467831626,1.3880227425565719,9.738503038741602,0.0,0.0,0.0,-4.030128591169487,-4.214495199740801,-60.0
1772316513.2863848,-3.41637676057606,1.12146546039855,-8.711601554756442,-0.5588303467831626,1.3880227425565719,9.738503038741602,0.0,0.0,0.0,-4.030128591169487,-4.214495199740801,-60.0
1772316513.344692,-3.41637676057606,1.12146546039855,-8.711601554756442,-0.5626115006913174,1.3952969590948616,9.73900378900469,-0.0010515943462497178,0.0019114906526329005,-0.001090830782496456,-4.5339536411803465,-4.206336218091403,-60.0
1772316513.361851,-3.41637676057606,1.12146546039855,-8.711601554756442,-0.5589721636901672,1.395888539390069,9.729301697589069,-0.0014815424994413092,0.00042994815319159134,0.001090830782496456,-4.5339536411803465,-4.206336218091403,-60.0
1772316513.376777,-3.41637676057606,1.12146546039855,-8.711601554756442,-0.5589721636901672,1.395888539390069,9.729301697589069,-0.0014815424994413092,0.00042994815319159134,0.001090830782496456,-4.5339536411803465,-4.206336218091403,-60.0
1772316513.4137638,-3.4610678207022114,1.1267669146185086,-8.70741262749354,-0.5610934830937624,1.3976006966620114,9.732880399253395,-0.0005257971731248589,0.0009557453263164502,0.001090830782496456,-4.81324625292942,-4.217319706716686,-58.0
1772316513.4277709,-3.4524254370868235,1.1273776447024069,-8.706965149480508,-0.5579619399363622,1.3974216510065725,9.725226650112328,-0.002007339672566168,0.0013856934795080417,0.0,-4.81324625292942,-4.217319706716686,-58.0
1772316513.4409986,-3.4524254370868235,1.1273776447024069,-8.706965149480508,-0.5579619399363622,1.3974216510065725,9.725226650112328,-0.002007339672566168,0.0013856934795080417,0.0,-4.81324625292942,-4.217319706716686,-58.0
1772316513.4590173,-3.4524254370868235,1.1273776447024069,-8.706965149480508,-0.5558779329467414,1.3973024981229487,9.730168500678886,0.00042994815319159134,0.0014815424994413092,0.001090830782496456,-4.81324625292942,-4.217319706716686,-58.0
1772316513.5314338,-3.531940208264948,1.1213128587266346,-8.707650314530479,-0.5528786544100643,1.3942923408510874,9.733457247026841,-0.0019114906526329005,-0.0010515943462497178,-0.001090830782496456,-5.347197261840242,-4.154400551580002,-58.5
1772316513.5507102,-3.531940208264948,1.1213128587266346,-8.707650314530479,-0.5508826680480423,1.392289114812324,9.735645870983703,0.0024372878257577593,9.584901993326756e-05,-0.001090830782496456,-5.347197261840242,-4.154400551580002,-58.5
1772316513.5774376,-3.6652426514236547,1.1246837774048177,-8.713241713205155,-0.55248522377958,1.38934359509606,9.737102375778463,-9.584901993326756e-05,0.0024372878257577593,-0.001090830782496456,-5.347197261840242,-4.154400551580002,-58.5
1772316513.6086025,-3.6652426514236547,1.1246837774048177,-8.713241713205155,-0.55248522377958,1.38934359509606,9.737102375778463,-9.584901993326756e-05,0.0024372878257577593,-0.001090830782496456,-5.347197261840242,-4.154400551580002,-58.5
1772316513.6484153,-3.6652426514236547,1.1246837774048177,-8.713241713205155,-0.5535517067171977,1.3873833846284975,9.738071663449151,0.0018156416326996331,0.0034888821720074773,0.002181661564992912,-5.67575830276396,-4.335156304979786,-58.75
1772316513.6744802,-3.547283056685449,1.1201725831506364,-8.708014443751045,-0.5558738343637551,1.389009748818155,9.73871671356634,-9.584901993326756e-05,0.0024372878257577593,-0.002181661564992912,-5.67575830276396,-4.335156304979786,-58.75
1772316513.7036827,-3.6565919372132742,1.1252958239428204,-8.712795244967777,-0.554488322013839,1.3917044711836613,9.739145987213648,-0.0009557453263164502,-0.0005257971731248589,0.002181661564992912,-5.856514056163743,-4.0065952640560685,-58.0
1772316513.7281227,-3.6565919372132742,1.1252958239428204,-8.712795244967777,-0.554488322013839,1.3917044711836613,9.739145987213648,-0.0009557453263164502,-0.0005257971731248589,0.002181661564992912,-5.856514056163743,-4.0065952640560685,-58.0
1772316513.7527854,-3.6565919372132742,1.1252958239428204,-8.712795244967777,-0.551953883857189,1.39056691645705,9.739431664030631,-0.0009557453263164502,-0.0005257971731248589,0.0,-5.856514056163743,-4.0065952640560685,-58.0
1772316513.7799609,-3.6940622680097515,1.124441045287287,-8.70674418770298,-0.5502672435754679,1.3898098864938093,9.736276667053794,-0.0014815424994413092,0.00042994815319159134,0.001090830782496456,-4.81324625292942,-4.217319706716686,-58.0
1772316513.85615,-3.6940622680097515,1.124441045287287,-8.70674418770298,-0.5502672435754679,1.3898098864938093,9.736276667053794,-0.0014815424994413092,0.00042994815319159134,0.001090830782496456,-4.81324625292942,-4.217319706716686,-58.0
1772316513.888372,-3.9270485143425815,1.1221179930228198,-8.706066317551507,-0.5536880608327912,1.390624558703718,9.730831940102016,0.0,0.0,0.0,-5.196567467340423,-4.428201419016434,-58.75
1772316513.9399,-4.0891019707505665,1.123271400155228,-8.711860102832699,-0.5559645765045073,1.3911667139589272,9.727208535137192,9.584901993326756e-05,-0.0024372878257577593,0.0,-5.196567467340423,-4.428201419016434,-58.75
1772316513.9646933,-4.0891019707505665,1.123271400155228,-8.711860102832699,-0.5559645765045073,1.3911667139589272,9.727208535137192,9.584901993326756e-05,-0.0024372878257577593,0.0,-5.196567467340423,-4.428201419016434,-58.75
1772316514.005757,-4.191269642174446,1.1241986686427736,-8.70808045871296,-0.5558671770887202,1.3885966498661635,9.728142311316507,0.00042994815319159134,0.0014815424994413092,0.0,-4.8049300016408925,-5.140083674351155,-58.75
1772316514.051619,-4.191269642174446,1.1241986686427736,-8.70808045871296,-0.5528714965067021,1.3884986960868941,9.728763728932877,0.0014815424994413092,-0.00042994815319159134,0.0,-4.8049300016408925,-5.140083674351155,-58.75
1772316514.0928493,-4.300034670467066,1.1226120001611846,-8.710901044526885,-0.5508779045433138,1.3884335089410058,9.725832163707564,0.0010515943462497178,-0.0019114906526329005,0.0,-4.421608787229889,-4.929201962051407,-58.5
1772316514.128418,-4.3441256219171045,1.119268533026617,-8.711441716275031,-0.5495511913615603,1.3883901276236053,9.720536128090528,-0.0005257971731248589,0.0009557453263164502,-0.001090830782496456,-4.421608787229889,-4.929201962051407,-58.5
1772316514.1981683,-4.3441256219171045,1.119268533026617,-8.711441716275031,-0.5495511913615603,1.3883901276236053,9.720536128090528,-0.0005257971731248589,0.0009557453263164502,-0.001090830782496456,-4.421608787229889,-4.929201962051407,-58.5
1772316514.2271047,-4.468864481013576,1.1252131772608316,-8.70993135185747,-0.5486682785594607,1.3883612578414763,9.720356787255303,0.0005257971731248589,-0.0009557453263164502,0.002181661564992912,-4.632490499529636,-4.545880747640403,-58.75
1772316514.2592964,-4.468864481013576,1.1252131772608316,-8.70993135185747,-0.5486682785594607,1.3883612578414763,9.720356787255303,0.0005257971731248589,-0.0009557453263164502,0.002181661564992912,-4.632490499529636,-4.545880747640403,-58.75
1772316514.3934143,-4.643847365300606,1.1206120907657038,-8.706869291790891,-0.5503751157436683,1.3932105781269422,9.723503123999263,0.00042994815319159134,0.0014815424994413092,0.002181661564992912,-4.81324625292942,-4.217319706716686,-58.0
1772316514.5001132,-4.72387227624512,1.121216072632884,-8.709504093476511,-0.5495186367484642,1.3924273603413944,9.724896559086268,0.00042994815319159134,0.0014815424994413092,0.001090830782496456,-4.632490499529636,-4.545880747640403,-57.5625
1772316514.5928185,-4.74644802178445,1.1262186670526877,-8.711787063596125,-0.5486466138281042,1.3910479911163205,9.723258605373763,-0.0005257971731248589,0.0009557453263164502,0.0,-4.632490499529636,-4.545880747640403,-57.5625
1772316514.6376488,-4.74644802178445,1.1262186670526877,-8.711787063596125,-0.5486466138281042,1.3910479911163205,9.723258605373763,-0.0005257971731248589,0.0009557453263164502,0.0,-4.632490499529636,-4.545880747640403,-57.5625
1772316514.6623285,-4.892701864004587,1.1238228113372752,-8.70854198997008,-0.5509971546745733,1.3885176411406297,9.725513677182551,0.0010515943462497178,-0.0019114906526329005,-0.001090830782496456,-5.464876590464213,-4.718477519390789,-58.375
1772316514.7360094,-4.892701864004587,1.1238228113372752,-8.70854198997008,-0.5554922757094715,1.3852213263327011,9.723669290573179,-0.00042994815319159134,-0.0014815424994413092,-0.001090830782496456,-5.464876590464213,-4.718477519390789,-58.375
1772316514.7664676,-4.892701864004587,1.1238228113372752,-8.70854198997008,-0.5587776565155052,1.3905017855329105,9.725786983595109,0.0,0.0,0.0,-4.963876047429239,-3.943518839280255,-58.375
1772316514.8158126,-4.908076868972076,1.1226782337164625,-8.70889290686032,-0.5577392504118766,1.3881541474263865,9.723851172937703,9.584901993326756e-05,-0.0024372878257577593,0.0,-4.963876047429239,-3.943518839280255,-58.375
1772316514.8705475,-4.981425011422668,1.12380279335681,-8.711619527740645,-0.5541173403908334,1.3882042156562988,9.72590802427694,0.0010515943462497178,-0.0019114906526329005,0.001090830782496456,-5.136315549540495,-4.537721765991006,-58.375
1772316514.907049,-4.908076868972076,1.1226782337164625,-8.70889290686032,-0.5500946045662473,1.385306673145172,9.727276835866668,0.00042994815319159134,0.0014815424994413092,-0.001090830782496456,-5.136315549540495,-4.537721765991006,-58.375
1772316514.9410388,-4.857305133117946,1.1265513719750662,-8.708455641574508,-0.5474175188118886,1.3833783909716877,9.731532876396324,-0.0005257971731248589,0.0009557453263164502,-0.001090830782496456,-4.210884344569271,-3.8859341588170837,-58.5
1772316514.9723282,-4.857305133117946,1.1265513719750662,-8.708455641574508,-0.5474175188118886,1.3833783909716877,9.731532876396324,-0.0005257971731248589,0.0009557453263164502,-0.001090830782496456,-4.210884344569271,-3.8859341588170837,-58.5
1772316514.9998043,-5.112301474989321,1.122558974200615,-8.708017868766436,-0.5456359481473703,1.382095140725557,9.737710335533041,-0.0009557453263164502,-0.0005257971731248589,0.0,-4.210884344569271,-3.8859341588170837,-58.5
1772316515.0205781,-5.112301474989321,1.122558974200615,-8.708017868766436,-0.5460627279365496,1.3841720143804364,9.741821365581787,0.0005257971731248589,-0.0009557453263164502,0.002181661564992912,-4.210884344569271,-3.8859341588170837,-58.5
1772316515.0401707,-5.112301474989321,1.122558974200615,-8.708017868766436,-0.5460627279365496,1.3841720143804364,9.741821365581787,0.0005257971731248589,-0.0009557453263164502,0.002181661564992912,-4.210884344569271,-3.8859341588170837,-58.5
1772316515.0526512,-5.112301474989321,1.122558974200615,-8.708017868766436,-0.5495715354487416,1.3914158753152288,9.737866986741373,0.06878358065942325,-0.12276534992169721,0.0,-4.413449805580491,-4.425376912040548,-58.0
1772316515.07776,-5.112301474989321,1.122558974200615,-8.708017868766436,-0.5519066076521573,1.3962365838481046,9.735235391796385,0.0009557453263164502,0.0005257971731248589,-0.001090830782496456,-4.413449805580491,-4.425376912040548,-58.0
1772316515.1273093,-5.112301474989321,1.122558974200615,-8.708017868766436,-0.5502357817891289,1.3935829868082215,9.733484094757335,0.002007339672566168,-0.0013856934795080417,-0.003272492347489368,-4.5339536411803465,-4.206336218091403,-58.0
1772316515.1639657,-5.112301474989321,1.122558974200615,-8.708017868766436,-0.5491238658416314,1.3918170476208003,9.735663737848437,-9.584901993326756e-05,0.0024372878257577593,0.0,-4.5339536411803465,-4.206336218091403,-58.0
1772316515.186932,-5.207696327235572,1.122005564597987,-8.711004261934816,-0.5483838981994869,1.390641834818405,9.730424042562719,-0.00042994815319159134,-0.0014815424994413092,0.001090830782496456,-4.5339536411803465,-4.206336218091403,-58.0
1772316515.2252605,-5.207696327235572,1.122005564597987,-8.711004261934816,-0.5478914579996198,1.389859743826398,9.733627307295944,0.0,0.0,0.0,-5.015811713940639,-4.756762459940151,-58.75
1772316515.2551744,-5.207696327235572,1.122005564597987,-8.711004261934816,-0.5478914579996198,1.389859743826398,9.733627307295944,0.0,0.0,0.0,-5.015811713940639,-4.756762459940151,-58.75
1772316515.289735,-5.363195779266795,1.1256696127476227,-8.710235683453474,-0.5489580500709241,1.3919237645198304,9.732725422337333,0.0019114906526329005,0.0010515943462497178,0.001090830782496456,-4.8049300016408925,-5.140083674351155,-57.5625
1772316515.3160899,-5.363195779266795,1.1256696127476227,-8.710235683453474,-0.5489580500709241,1.3919237645198304,9.732725422337333,0.0019114906526329005,0.0010515943462497178,0.001090830782496456,-4.8049300016408925,-5.140083674351155,-57.5625
1772316515.331254,-5.363195779266795,1.1256696127476227,-8.710235683453474,-0.5498859448213325,1.393643716081438,9.735158849827853,0.0019114906526329005,0.0010515943462497178,0.001090830782496456,-4.8049300016408925,-5.140083674351155,-57.5625
1772316515.3700802,-5.385247068510333,1.1239956213018978,-8.710491404804468,-0.5493019949894299,1.3926191864783988,9.73785597376877,0.0019114906526329005,0.0010515943462497178,0.001090830782496456,-4.413449805580491,-4.425376912040548,-58.0
1772316515.406801,-5.385247068510333,1.1239956213018978,-8.710491404804468,-0.5485024411575138,1.3911756492676586,9.73522806278614,-0.002867235978949351,-0.0015773915193745768,-0.001090830782496456,-4.413449805580491,-4.425376912040548,-58.0
1772316515.4303918,-5.385247068510333,1.1239956213018978,-8.710491404804468,-0.5538320717316443,1.3869902010493425,9.733479217382888,0.0,0.0,0.001090830782496456,-4.413449805580491,-4.425376912040548,-58.0
1772316515.4534843,-5.385247068510333,1.1239956213018978,-8.710491404804468,-0.5538320717316443,1.3869902010493425,9.733479217382888,0.0,0.0,0.001090830782496456,-4.413449805580491,-4.425376912040548,-58.0
1772316515.47344,-5.407298541546197,1.1223215161003972,-8.710746483956948,-0.5544480189840191,1.385817227179541,9.732315380302907,0.0005257971731248589,-0.0009557453263164502,0.0,-4.632490499529636,-4.545880747640403,-58.75
1772316515.5063217,-5.407298541546197,1.1223215161003972,-8.710746483956948,-0.5532455298349249,1.38210576381333,9.734885971434412,9.584901993326756e-05,-0.0024372878257577593,-0.001090830782496456,-4.632490499529636,-4.545880747640403,-58.75
1772316515.5579472,-5.407298541546197,1.1223215161003972,-8.710746483956948,-0.5540576819038546,1.3825666887617138,9.729906447702405,-0.0033930331520742097,-0.0006216461930581266,0.0,-3.937083477132839,-3.735304364317264,-59.5625
1772316515.614251,-5.413963163634193,1.1217938113191888,-8.710655433983282,-0.5545981600333942,1.382873429165994,9.733282853698318,0.06878358065942325,-0.12276534992169721,0.001090830782496456,-3.937083477132839,-3.735304364317264,-59.5625
1772316515.6426249,-5.413963163634193,1.1217938113191888,-8.710655433983282,-0.5545981600333942,1.382873429165994,9.733282853698318,0.06878358065942325,-0.12276534992169721,0.001090830782496456,-3.937083477132839,-3.735304364317264,-59.5625
1772316515.6745036,-5.413963163634193,1.1217938113191888,-8.710655433983282,-0.5578887045499012,1.38146516631356,9.728839590757033,-0.0013856934795080415,-0.002007339672566168,-0.001090830782496456,-4.632490499529636,-4.545880747640403,-58.5
1772316515.7080803,-5.413963163634193,1.1217938113191888,-8.710655433983282,-0.5571476628090113,1.3821403782815598,9.732572872318746,-0.0009557453263164502,-0.0005257971731248589,-0.001090830782496456,-4.632490499529636,-4.545880747640403,-58.5
1772316515.7301438,-5.413963163634193,1.1217938113191888,-8.710655433983282,-0.555336040614561,1.3871329818274543,9.72836710607994,-9.584901993326756e-05,0.0024372878257577593,0.001090830782496456,-4.413449805580491,-4.425376912040548,-59.1875
1772316515.7521343,-5.413963163634193,1.1217938113191888,-8.710655433983282,-0.5541304262813,1.390455503716211,9.728913327336821,-0.0013856934795080415,-0.002007339672566168,0.0,-4.413449805580491,-4.425376912040548,-59.1875
1772316515.7775006,-5.413963163634193,1.1217938113191888,-8.710655433983282,-0.5541304262813,1.390455503716211,9.728913327336821,-0.0013856934795080415,-0.002007339672566168,0.0,-4.413449805580491,-4.425376912040548,-59.1875
1772316515.8067365,-5.413963163634193,1.1217938113191888,-8.710655433983282,-0.5522548023075501,1.393157661869559,9.72729260495544,-0.0008598963063831827,-0.0029630849988826185,-0.001090830782496456,-5.196567467340423,-4.428201419016434,-58.75
1772316515.864419,-5.413963163634193,1.1217938113191888,-8.710655433983282,-0.5536922917726395,1.3973957233429806,9.72485314713411,0.0009557453263164502,0.0005257971731248589,0.001090830782496456,-5.196567467340423,-4.428201419016434,-58.75
1772316515.8954153,-5.413963163634193,1.1217938113191888,-8.710655433983282,-0.5543549969827458,1.392741986028657,9.726574826911865,0.003918830325199069,-0.0003340991332583237,-0.001090830782496456,-5.196567467340423,-4.428201419016434,-58.75
1772316515.914692,-5.413963163634193,1.1217938113191888,-8.710655433983282,-0.5564084150621371,1.3925758381904612,9.727720585571536,-0.002007339672566168,0.0013856934795080417,-0.001090830782496456,-4.413449805580491,-4.425376912040548,-58.75
1772316515.933109,-5.413963163634193,1.1217938113191888,-8.710655433983282,-0.5564084150621371,1.3925758381904612,9.727720585571536,-0.002007339672566168,0.0013856934795080417,-0.001090830782496456,-4.413449805580491,-4.425376912040548,-58.75
1772316515.9528852,-5.413963163634193,1.1217938113191888,-8.710655433983282,-0.5561625466908213,1.3895344063013004,9.728483075160584,0.0019114906526329005,0.0010515943462497178,-0.001090830782496456,-4.413449805580491,-4.425376912040548,-58.75
1772316515.9894674,-5.413963163634193,1.1217938113191888,-8.710655433983282,-0.5543865288712725,1.3845795049952494,9.72564539175721,0.0013856934795080415,0.002007339672566168,-0.001090830782496456,-4.413449805580491,-4.425376912040548,-59.5625
1772316516.0522208,-5.413963163634193,1.1217938113191888,-8.710655433983282,-0.5532046088517817,1.381282073525947,9.723756945151266,0.0019114906526329005,0.0010515943462497178,0.0,-4.413449805580491,-4.425376912040548,-59.5625
1772316516.0718532,-5.413963163634193,1.1217938113191888,-8.710655433983282,-0.5532046088517817,1.381282073525947,9.723756945151266,0.0019114906526329005,0.0010515943462497178,0.0,-4.413449805580491,-4.425376912040548,-59.5625
1772316516.124824,-5.413963163634193,1.1217938113191888,-8.710655433983282,-0.5540304494466901,1.3820185320766836,9.72250020503034,0.002007339672566168,-0.0013856934795080417,-0.001090830782496456,-5.525128508264141,-4.608957172416217,-58.75
1772316516.1637425,-5.413963163634193,1.1217938113191888,-8.710655433983282,-0.5532615699434911,1.3870518945392205,9.72500897022589,0.0005257971731248589,-0.0009557453263164502,0.0,-5.525128508264141,-4.608957172416217,-58.75
1772316516.210212,-5.413963163634193,1.1217938113191888,-8.710655433983282,-0.5527498892230589,1.3904015410316957,9.726678525438786,0.0014815424994413092,-0.00042994815319159134,-0.001090830782496456,-4.81324625292942,-4.217319706716686,-58.75
1772316516.2533772,-5.413963163634193,1.1217938113191888,-8.710655433983282,-0.5524093714194594,1.392630693354435,9.737824930904772,0.0005257971731248589,-0.0009557453263164502,0.0,-4.81324625292942,-4.217319706716686,-58.75
1772316516.290335,-5.413963163634193,1.1217938113191888,-8.710655433983282,-0.5505703654600294,1.3911833069651205,9.745242739228878,0.0,0.0,0.0,-4.36151413906909,-3.6121332913806525,-58.0
1772316516.3313713,-5.152519004500638,1.1332105167165374,-8.643571315128005,-0.5493465275370711,1.390220087491397,9.750179207806223,-0.0009557453263164502,-0.0005257971731248589,-0.001090830782496456,-4.36151413906909,-3.6121332913806525,-58.0
1772316516.361747,-5.413963163634193,1.1217938113191888,-8.710655433983282,-0.5485320770705079,1.3895790756915005,9.75011926079316,-0.0005257971731248589,0.0009557453263164502,-0.001090830782496456,-4.36151413906909,-3.6121332913806525,-58.0
1772316516.403166,-5.413963163634193,1.1217938113191888,-8.710655433983282,-0.5450592070241832,1.3907648846642082,9.750079366725616,-0.0010515943462497178,0.0019114906526329005,0.001090830782496456,-3.7563277237330555,-4.063865405240981,-59.1875
1772316516.4450343,-5.413963163634193,1.1217938113191888,-8.710655433983282,-0.545678913161689,1.3899416321242233,9.746707705961994,0.0014815424994413092,-0.00042994815319159134,0.0,-3.7563277237330555,-4.063865405240981,-59.1875
1772316516.4718695,-5.413963163634193,1.1217938113191888,-8.710655433983282,-0.5460913206736281,1.3893937667551968,9.74780901509504,0.0,0.0,-0.002181661564992912,-3.7563277237330555,-4.063865405240981,-59.1875
1772316516.4872117,-5.413963163634193,1.1217938113191888,-8.710655433983282,-0.5460913206736281,1.3893937667551968,9.74780901509504,0.0,0.0,-0.002181661564992912,-3.7563277237330555,-4.063865405240981,-59.1875
1772316516.520094,-5.413963163634193,1.1217938113191888,-8.710655433983282,-0.5463657732659298,1.3890291684721667,9.745196812313335,0.0009557453263164502,0.0005257971731248589,0.0,-4.413449805580491,-4.425376912040548,-58.0
1772316516.54825,-5.413963163634193,1.1217938113191888,-8.710655433983282,-0.548160813565238,1.3917173947464745,9.73342308542037,-0.0005257971731248589,0.0009557453263164502,-0.001090830782496456,-4.413449805580491,-4.425376912040548,-58.0
1772316516.6277688,-5.413963163634193,1.1217938113191888,-8.710655433983282,-0.5509677879974816,1.3964372416614057,9.725587801694248,-0.0006216461930581266,0.0033930331520742097,0.001090830782496456,-4.030128591169487,-4.214495199740801,-58.375
1772316516.6725624,-5.413963163634193,1.1217938113191888,-8.710655433983282,-0.5509677879974816,1.3964372416614057,9.725587801694248,-0.0006216461930581266,0.0033930331520742097,0.001090830782496456,-4.030128591169487,-4.214495199740801,-58.375
1772316516.7016842,-5.413963163634193,1.1217938113191888,-8.710655433983282,-0.5528357981261808,1.3995782470591478,9.723718619607688,-0.0014815424994413092,0.00042994815319159134,0.001090830782496456,-5.525128508264141,-4.608957172416217,-58.75
1772316516.7630715,-5.413963163634193,1.1217938113191888,-8.710655433983282,-0.5524665428348217,1.3987376887051812,9.722474699809213,0.0019114906526329005,0.0010515943462497178,0.0,-5.525128508264141,-4.608957172416217,-58.75
1772316516.8095126,-5.413963163634193,1.1217938113191888,-8.710655433983282,-0.5522208075632742,1.3981783065102686,9.721646885078824,-9.584901993326756e-05,0.0024372878257577593,0.002181661564992912,-5.946734663224506,-5.268903761239537,-59.1875
1772316516.8528924,-5.413963163634193,1.1217938113191888,-8.710655433983282,-0.5549881358439367,1.396193648743295,9.721095983623046,0.0,0.0,0.0,-5.946734663224506,-5.268903761239537,-59.1875
1772316516.9206011,-5.413963163634193,1.1217938113191888,-8.710655433983282,-0.5565358339305341,1.3873987612868168,9.720729364858197,0.0,0.0,0.001090830782496456,-4.81324625292942,-4.217319706716686,-58.75
1772316516.9491313,-5.413963163634193,1.1217938113191888,-8.710655433983282,-0.5594721328543132,1.3919508441713324,9.720485384165592,0.0014815424994413092,-0.00042994815319159134,-0.001090830782496456,-4.81324625292942,-4.217319706716686,-58.75
1772316516.9831388,-5.413963163634193,1.1217938113191888,-8.710655433983282,-0.5594721328543132,1.3919508441713324,9.720485384165592,0.0014815424994413092,-0.00042994815319159134,-0.001090830782496456,-4.81324625292942,-4.217319706716686,-58.75
1772316517.0155363,-5.413963163634193,1.1217938113191888,-8.710655433983282,-0.561132279016379,1.387506084598243,9.723668129447425,0.0,0.0,0.0,-5.196567467340423,-4.428201419016434,-58.75
1772316517.0634565,-5.413963163634193,1.1217938113191888,-8.710655433983282,-0.5563753630245167,1.3877729370835055,9.729131322586209,-0.0009557453263164502,-0.0005257971731248589,0.001090830782496456,-5.196567467340423,-4.428201419016434,-58.75
1772316517.0784793,-5.413963163634193,1.1217938113191888,-8.710655433983282,-0.5532096885701657,1.3879505244315098,9.729421904884886,0.0008598963063831827,0.0029630849988826185,-0.002181661564992912,-3.8192468788697402,-4.597816414151805,-58.75
1772316517.1289592,-5.413963163634193,1.1217938113191888,-8.710655433983282,-0.551102967583696,1.3880687068278263,9.729615284158637,-0.0014815424994413092,0.00042994815319159134,0.0,-3.8192468788697402,-4.597816414151805,-58.75
1772316517.1641178,-5.413963163634193,1.1217938113191888,-8.710655433983282,-0.5513133634657836,1.3910782182512256,9.72974397590513,0.0,0.0,0.0,-4.81324625292942,-4.217319706716686,-58.5
1772316517.1848512,-5.413963163634193,1.1217938113191888,-8.710655433983282,-0.549840984410069,1.3901501521262176,9.73651984223948,0.0010515943462497178,-0.0019114906526329005,0.001090830782496456,-4.81324625292942,-4.217319706716686,-58.5
1772316517.2063665,-5.413963163634193,1.1217938113191888,-8.710655433983282,-0.549840984410069,1.3901501521262176,9.73651984223948,0.0010515943462497178,-0.0019114906526329005,0.001090830782496456,-4.81324625292942,-4.217319706716686,-58.5
1772316517.2364106,-5.413963163634193,1.1217938113191888,-8.710655433983282,-0.5517919949548773,1.387920139322235,9.741029105593602,0.0005257971731248589,-0.0009557453263164502,0.0,-4.413449805580491,-4.425376912040548,-58.5
1772316517.265521,-5.413963163634193,1.1217938113191888,-8.710655433983282,-0.5501595083193969,1.3880484858770277,9.744029969983998,0.00042994815319159134,0.0014815424994413092,0.0,-4.413449805580491,-4.425376912040548,-58.5
1772316517.298698,-5.413963163634193,1.1217938113191888,-8.710655433983282,-0.5501595083193969,1.3880484858770277,9.744029969983998,0.00042994815319159134,0.0014815424994413092,0.0,-4.413449805580491,-4.425376912040548,-58.5
1772316517.3412375,-5.413963163634193,1.1217938113191888,-8.710655433983282,-0.5490731066995552,1.3881338990755172,9.739336788299317,0.002007339672566168,-0.0013856934795080417,0.002181661564992912,-5.908449722675145,-4.819838884715964,-58.0
1772316517.3845403,-5.413963163634193,1.1217938113191888,-8.710655433983282,-0.5507998403840234,1.3866161728429152,9.741932414338669,0.00042994815319159134,0.0014815424994413092,-0.001090830782496456,-5.908449722675145,-4.819838884715964,-58.0
1772316517.4231086,-5.413963163634193,1.1217938113191888,-8.710655433983282,-0.552430102894421,1.3855683155863323,9.744631111863221,0.0009557453263164502,0.0005257971731248589,0.001090830782496456,-3.216884970509591,-4.266430866252202,-58.375
1772316517.4378524,-5.413963163634193,1.1217938113191888,-8.710655433983282,-0.5505841620250304,1.386483373452377,9.746427064919384,-0.0005257971731248589,0.0009557453263164502,0.002181661564992912,-3.216884970509591,-4.266430866252202,-58.375
1772316517.4544978,-5.413963163634193,1.1217938113191888,-8.710655433983282,-0.5505841620250304,1.386483373452377,9.746427064919384,-0.0005257971731248589,0.0009557453263164502,0.002181661564992912,-3.216884970509591,-4.266430866252202,-58.375
1772316517.4711032,-5.413963163634193,1.1217938113191888,-8.710655433983282,-0.5493557089969615,1.3870923342403634,9.74762225161615,0.0,0.0,0.001090830782496456,-3.216884970509591,-4.266430866252202,-58.375
1772316517.4870024,-5.413963163634193,1.1217938113191888,-8.710655433983282,-0.5493557089969615,1.3870923342403634,9.74762225161615,0.0,0.0,0.001090830782496456,-3.216884970509591,-4.266430866252202,-58.375
1772316517.5036507,-5.413963163634193,1.1217938113191888,-8.710655433983282,-0.5485381872295012,1.387497590842231,9.741727411597099,0.0009557453263164502,0.0005257971731248589,-0.001090830782496456,-3.937083477132839,-3.735304364317264,-59.1875
1772316517.5374095,-5.413963163634193,1.1217938113191888,-8.710655433983282,-0.5463817404606051,1.384836422224926,9.734459349706778,0.00042994815319159134,0.0014815424994413092,0.0,-3.937083477132839,-3.735304364317264,-59.1875
1772316517.5651963,-5.413963163634193,1.1217938113191888,-8.710655433983282,-0.5449466492249935,1.383065444237311,9.732967647415661,0.0,0.0,0.002181661564992912,-4.752994335129491,-4.326840053691258,-57.5625
1772316517.5912256,-5.413963163634193,1.1217938113191888,-8.710655433983282,-0.5439916120387134,1.3818868781696736,9.728629824497009,0.0014815424994413092,-0.00042994815319159134,-0.002181661564992912,-4.752994335129491,-4.326840053691258,-57.5625
1772316517.6196606,-5.413963163634193,1.1217938113191888,-8.710655433983282,-0.5439916120387134,1.3818868781696736,9.728629824497009,0.0014815424994413092,-0.00042994815319159134,-0.002181661564992912,-4.752994335129491,-4.326840053691258,-57.5625
1772316517.6335454,-5.413963163634193,1.1217938113191888,-8.710655433983282,-0.5465808357896442,1.3869642803347757,9.729088163508623,0.0010515943462497178,-0.0019114906526329005,0.001090830782496456,-4.413449805580491,-4.425376912040548,-58.375
1772316517.6552966,-5.413963163634193,1.1217938113191888,-8.710655433983282,-0.5465808357896442,1.3869642803347757,9.729088163508623,0.0010515943462497178,-0.0019114906526329005,0.001090830782496456,-4.413449805580491,-4.425376912040548,-58.375
1772316517.668574,-5.413963163634193,1.1217938113191888,-8.710655433983282,-0.5450791449424285,1.3844815100396834,9.732738294708188,-0.0009557453263164502,-0.0005257971731248589,-0.001090830782496456,-4.413449805580491,-4.425376912040548,-58.375
1772316517.6961374,-5.413963163634193,1.1217938113191888,-8.710655433983282,-0.5450791449424285,1.3844815100396834,9.732738294708188,-0.0009557453263164502,-0.0005257971731248589,-0.001090830782496456,-4.413449805580491,-4.425376912040548,-58.375
1772316517.7482917,-5.413963163634193,1.1217938113191888,-8.710655433983282,-0.5440797864585923,1.382829254142661,9.735167416246862,0.0005257971731248589,-0.0009557453263164502,0.0,-4.413449805580491,-4.425376912040548,-58.375
1772316517.787116,-5.413963163634193,1.1217938113191888,-8.710655433983282,-0.5478093187759042,1.389790539915246,9.731169544210221,0.0,0.0,-0.001090830782496456,-5.144631800829022,-3.6149577983565373,-58.5
1772316517.8482716,-5.413963163634193,1.1217938113191888,-8.710655433983282,-0.5507338721416339,1.395154941295602,9.734123430314558,-0.0015773915193745768,0.002867235978949351,0.001090830782496456,-4.413449805580491,-4.425376912040548,-58.75
1772316517.8879795,-5.413963163634193,1.1217938113191888,-8.710655433983282,-0.5510677345721575,1.3957940281311043,9.729398985105284,0.0,0.0,-0.001090830782496456,-4.413449805580491,-4.425376912040548,-58.75
1772316517.9310513,-5.413963163634193,1.1217938113191888,-8.710655433983282,-0.5512899162901833,1.3962193332810635,9.732945143008662,9.584901993326756e-05,-0.0024372878257577593,-0.001090830782496456,-3.5454460114333086,-4.447186619651985,-58.5
1772316517.9584723,-5.413963163634193,1.1217938113191888,-8.710655433983282,-0.5511438477704959,1.3890282492247545,9.73530507148018,0.00042994815319159134,0.0014815424994413092,0.002181661564992912,-3.5454460114333086,-4.447186619651985,-58.5
1772316517.990756,-5.413963163634193,1.1217938113191888,-8.710655433983282,-0.5511438477704959,1.3890282492247545,9.73530507148018,0.00042994815319159134,0.0014815424994413092,0.002181661564992912,-3.5454460114333086,-4.447186619651985,-58.5
1772316518.0329342,-5.413963163634193,1.1217938113191888,-8.710655433983282,-0.5563528029221384,1.3908205460549026,9.734575620031563,0.0,0.0,0.002181661564992912,-3.937083477132839,-3.735304364317264,-58.0
1772316518.0632417,-5.413963163634193,1.1217938113191888,-8.710655433983282,-0.5577379325978484,1.3912971413518187,9.729699912310661,-9.584901993326756e-05,0.0024372878257577593,-0.002181661564992912,-3.937083477132839,-3.735304364317264,-58.0
1772316518.0933728,-5.413963163634193,1.1217938113191888,-8.710655433983282,-0.558659720924121,1.3916143101979979,9.726455183287625,-0.0005257971731248589,0.0009557453263164502,-0.002181661564992912,-5.015811713940639,-4.756762459940151,-59.1875
1772316518.1200829,-5.413963163634193,1.1217938113191888,-8.710655433983282,-0.5592731607582051,1.3918253825221218,9.724295852368792,-0.0010515943462497178,0.0019114906526329005,0.001090830782496456,-5.015811713940639,-4.756762459940151,-59.1875
1772316518.1442726,-5.413963163634193,1.1217938113191888,-8.710655433983282,-0.5592731607582051,1.3918253825221218,9.724295852368792,-0.0010515943462497178,0.0019114906526329005,0.001090830782496456,-5.015811713940639,-4.756762459940151,-59.1875
1772316518.1740277,-5.413963163634193,1.1217938113191888,-8.710655433983282,-0.5596813981152162,1.3919658487959943,9.722858841763616,-0.0009557453263164502,-0.0005257971731248589,-0.001090830782496456,-4.632490499529636,-4.545880747640403,-59.1875
1772316518.1989105,-5.413963163634193,1.1217938113191888,-8.710655433983282,-0.5583406803510291,1.3891284651733107,9.725247638965651,0.0,0.0,0.0,-4.632490499529636,-4.545880747640403,-59.1875
1772316518.229067,-5.413963163634193,1.1217938113191888,-8.710655433983282,-0.5583406803510291,1.3891284651733107,9.725247638965651,0.0,0.0,0.0,-4.632490499529636,-4.545880747640403,-59.1875
1772316518.2678723,-5.413963163634193,1.1217938113191888,-8.710655433983282,-0.5583406803510291,1.3891284651733107,9.725247638965651,0.0,0.0,0.0,-4.632490499529636,-4.545880747640403,-59.1875
1772316518.3135111,-5.413963163634193,1.1217938113191888,-8.710655433983282,-0.5574484476557614,1.3872402180680665,9.726837356818992,-0.0009557453263164502,-0.0005257971731248589,-0.002181661564992912,-4.594205558980275,-4.0968158711168305,-59.1875
1772316518.366684,-5.413963163634193,1.1217938113191888,-8.710655433983282,-0.556854676763953,1.3859836107126289,9.727895296292079,-0.0005257971731248589,0.0009557453263164502,-0.001090830782496456,-4.594205558980275,-4.0968158711168305,-59.1875
1772316518.3854597,-5.413963163634193,1.1217938113191888,-8.710655433983282,-0.556854676763953,1.3859836107126289,9.727895296292079,-0.0005257971731248589,0.0009557453263164502,-0.001090830782496456,-4.594205558980275,-4.0968158711168305,-59.1875
1772316518.4266834,-5.413963163634193,1.1217938113191888,-8.710655433983282,-0.5551410616744432,1.3896906100786115,9.72859934319346,-0.00042994815319159134,-0.0014815424994413092,0.001090830782496456,-3.937083477132839,-3.735304364317264,-58.5
1772316518.46072,-5.413963163634193,1.1217938113191888,-8.710655433983282,-0.5540006699747093,1.3921575767467766,9.72906787854161,0.0005257971731248589,-0.0009557453263164502,0.0,-3.937083477132839,-3.735304364317264,-58.5
1772316518.4950461,-5.413963163634193,1.1217938113191888,-8.710655433983282,-0.5532417520375463,1.3937993155066173,9.72937968358192,-0.0005257971731248589,0.0009557453263164502,0.0,-4.479350737332189,-2.7496212415461114,-58.0
1772316518.5195749,-5.413963163634193,1.1217938113191888,-8.710655433983282,-0.5585984253457024,1.3916670839819316,9.726242074645837,-0.00042994815319159134,-0.0014815424994413092,0.0,-4.479350737332189,-2.7496212415461114,-58.0
1772316518.5461185,-5.413963163634193,1.1217938113191888,-8.710655433983282,-0.5585984253457024,1.3916670839819316,9.726242074645837,-0.00042994815319159134,-0.0014815424994413092,0.0,-4.479350737332189,-2.7496212415461114,-58.0
1772316518.5808399,-5.413963163634193,1.1217938113191888,-8.710655433983282,-0.5621632315943186,1.3902481077208402,9.724154030948263,0.0005257971731248589,-0.0009557453263164502,0.002181661564992912,-3.8192468788697402,-4.597816414151805,-58.375
1772316518.6275625,-5.413963163634193,1.1217938113191888,-8.710655433983282,-0.5599923128074752,1.3879853276762206,9.722764461192503,0.0005257971731248589,-0.0009557453263164502,-0.002181661564992912,-3.8192468788697402,-4.597816414151805,-58.375
1772316518.6498644,-5.413963163634193,1.1217938113191888,-8.710655433983282,-0.5585475906055828,1.3864794728334355,9.728529941457195,0.0,0.0,0.0,-4.150632426769343,-3.995454505791656,-58.75
1772316518.6775384,-5.413963163634193,1.1217938113191888,-8.710655433983282,-0.5575861441188278,1.385477343257063,9.729021692461393,0.00042994815319159134,0.0014815424994413092,0.0,-4.150632426769343,-3.995454505791656,-58.75
1772316518.7077324,-5.413963163634193,1.1217938113191888,-8.710655433983282,-0.5585587073869211,1.3877412995773424,9.729348947261467,0.00042994815319159134,0.0014815424994413092,0.0,-5.67575830276396,-4.335156304979786,-58.75
1772316518.7202563,-5.413963163634193,1.1217938113191888,-8.710655433983282,-0.5585587073869211,1.3877412995773424,9.729348947261467,0.00042994815319159134,0.0014815424994413092,0.0,-5.67575830276396,-4.335156304979786,-58.75
1772316518.7324533,-5.413963163634193,1.1217938113191888,-8.710655433983282,-0.5592059373775938,1.3892479372184392,9.729566731675241,-0.0005257971731248589,0.0009557453263164502,0.001090830782496456,-5.67575830276396,-4.335156304979786,-58.75
1772316518.7493548,-5.413963163634193,1.1217938113191888,-8.710655433983282,-0.5550934041825513,1.3889321205444773,9.729711664769798,9.584901993326756e-05,-0.0024372878257577593,-0.001090830782496456,-5.67575830276396,-4.335156304979786,-58.75
1772316518.7738974,-5.413963163634193,1.1217938113191888,-8.710655433983282,-0.5550934041825513,1.3889321205444773,9.729711664769798,9.584901993326756e-05,-0.0024372878257577593,-0.001090830782496456,-5.67575830276396,-4.335156304979786,-58.75
1772316518.8373692,-5.413963163634193,1.1217938113191888,-8.710655433983282,-0.5523565592812564,1.388721948075859,9.729808116125216,0.0,0.0,-0.001090830782496456,-4.202568093280744,-4.808698126451552,-58.75
1772316518.8775356,-5.413963163634193,1.1217938113191888,-8.710655433983282,-0.5505352195720055,1.3885820806457738,9.729872303424814,-0.0014815424994413092,0.00042994815319159134,-0.001090830782496456,-4.202568093280744,-4.808698126451552,-58.75
1772316518.9259112,-5.413963163634193,1.1217938113191888,-8.710655433983282,-0.553866395864999,1.3898074676273404,9.729915019355678,-0.0013856934795080415,-0.002007339672566168,0.001090830782496456,-4.413449805580491,-4.425376912040548,-58.75
1772316518.9477673,-5.413963163634193,1.1217938113191888,-8.710655433983282,-0.5560832564763089,1.3906229489751036,9.7299434463305,-0.0014815424994413092,0.00042994815319159134,0.0,-4.413449805580491,-4.425376912040548,-58.75
1772316518.9697413,-5.413963163634193,1.1217938113191888,-8.710655433983282,-0.5560832564763089,1.3906229489751036,9.7299434463305,-0.0014815424994413092,0.00042994815319159134,0.0,-4.413449805580491,-4.425376912040548,-58.75
1772316519.0158105,-5.413963163634193,1.1217938113191888,-8.710655433983282,-0.5523846927502193,1.387277469763122,9.733320065479344,-0.0024372878257577593,-9.584901993326756e-05,0.001090830782496456,-4.594205558980275,-4.0968158711168305,-59.1875
1772316519.0513399,-5.413963163634193,1.1217938113191888,-8.710655433983282,-0.5489415469163609,1.3846899341056929,9.725519243074304,-0.0010515943462497178,0.0019114906526329005,-0.001090830782496456,-4.594205558980275,-4.0968158711168305,-59.1875
1772316519.067317,-5.413963163634193,1.1217938113191888,-8.710655433983282,-0.5466501718263872,1.382967958030341,9.720327882904645,0.0,0.0,0.0,-5.67575830276396,-4.335156304979786,-58.5
1772316519.119783,-5.413963163634193,1.1217938113191888,-8.710655433983282,-0.5466501718263872,1.382967958030341,9.720327882904645,0.0,0.0,0.0,-5.67575830276396,-4.335156304979786,-58.5
1772316519.1486957,-5.413963163634193,1.1217938113191888,-8.710655433983282,-0.5467376824653146,1.384752864546762,9.71687309070303,-0.00042994815319159134,-0.0014815424994413092,0.0,-5.67575830276396,-4.335156304979786,-58.5
1772316519.1762114,-5.413963163634193,1.1217938113191888,-8.710655433983282,-0.5467959198179628,1.385940699894728,9.711228853378094,9.584901993326756e-05,-0.0024372878257577593,-0.002181661564992912,-3.937083477132839,-3.735304364317264,-57.5625
1772316519.220799,-5.413963163634193,1.1217938113191888,-8.710655433983282,-0.5497655384844309,1.385118795884841,9.70747267648861,-0.0009557453263164502,-0.0005257971731248589,0.001090830782496456,-3.937083477132839,-3.735304364317264,-57.5625
1772316519.27416,-5.413963163634193,1.1217938113191888,-8.710655433983282,-0.5517417865341514,1.3845718279475308,9.711663206142543,-0.0019114906526329005,-0.0010515943462497178,0.0,-4.421608787229889,-4.929201962051407,-58.5
1772316519.3162017,-5.413963163634193,1.1217938113191888,-8.710655433983282,-0.5501260951762685,1.3858202220602507,9.727832403645229,0.0006216461930581266,-0.0033930331520742097,-0.001090830782496456,-4.421608787229889,-4.929201962051407,-58.5
1772316519.3471973,-5.413963163634193,1.1217938113191888,-8.710655433983282,-0.5506632657910204,1.3895818767556247,9.738592823961495,-0.00042994815319159134,-0.0014815424994413092,0.0,-4.210884344569271,-3.8859341588170837,-60.0
1772316519.3670137,-5.413963163634193,1.1217938113191888,-8.710655433983282,-0.5506632657910204,1.3895818767556247,9.738592823961495,-0.00042994815319159134,-0.0014815424994413092,0.0,-4.210884344569271,-3.8859341588170837,-60.0
1772316519.4121127,-5.413963163634193,1.1217938113191888,-8.710655433983282,-0.5510207468345488,1.3920852159349595,9.7457537634802,0.0,0.0,-0.001090830782496456,-4.210884344569271,-3.8859341588170837,-60.0
1772316519.4317017,-5.413963163634193,1.1217938113191888,-8.710655433983282,-0.5512586464756921,1.3937511601946762,9.737138841907685,0.0009557453263164502,0.0005257971731248589,0.001090830782496456,-5.144631800829022,-3.6149577983565373,-58.5
1772316519.464049,-5.413963163634193,1.1217938113191888,-8.710655433983282,-0.5481921756994242,1.3889981027720317,9.738095931250795,0.0010515943462497178,-0.0019114906526329005,0.0,-5.144631800829022,-3.6149577983565373,-58.5
1772316519.4943774,-5.413963163634193,1.1217938113191888,-8.710655433983282,-0.5481921756994242,1.3889981027720317,9.738095931250795,0.0010515943462497178,-0.0019114906526329005,0.0,-5.144631800829022,-3.6149577983565373,-58.5
1772316519.5407472,-5.413963163634193,1.1217938113191888,-8.710655433983282,-0.5477638688175087,1.3887658585112266,9.738732863517246,0.0,0.0,-0.001090830782496456,-4.36151413906909,-3.6121332913806525,-58.5
1772316519.566284,-5.413963163634193,1.1217938113191888,-8.710655433983282,-0.5474788353720953,1.3886113025499993,9.739156734825569,0.0003340991332583237,0.003918830325199069,-0.001090830782496456,-4.36151413906909,-3.6121332913806525,-58.5
1772316519.620579,-5.413963163634193,1.1217938113191888,-8.710655433983282,-0.547289148798205,1.3885084472843057,9.736093704738986,0.003918830325199069,-0.0003340991332583237,-0.002181661564992912,-4.030128591169487,-4.214495199740801,-58.75
1772316519.6417081,-5.413963163634193,1.1217938113191888,-8.710655433983282,-0.5471629145022189,1.3884399982539553,9.734055292432654,0.0,0.0,0.0,-4.030128591169487,-4.214495199740801,-58.75
1772316519.6729174,-5.413963163634193,1.1217938113191888,-8.710655433983282,-0.5470789069883695,1.3883944461888826,9.726008528398708,0.0013856934795080415,0.002007339672566168,0.0,-4.030128591169487,-4.214495199740801,-58.75
1772316519.7320464,-5.413963163634193,1.1217938113191888,-8.710655433983282,-0.5454106057613602,1.385433269439592,9.727343720237,-0.0009557453263164502,-0.0005257971731248589,0.001090830782496456,-4.81324625292942,-4.217319706716686,-57.5625
1772316519.771028,-5.413963163634193,1.1217938113191888,-8.710655433983282,-0.5454106057613602,1.385433269439592,9.727343720237,-0.0009557453263164502,-0.0005257971731248589,0.001090830782496456,-4.81324625292942,-4.217319706716686,-57.5625
1772316519.802444,-5.413963163634193,1.1217938113191888,-8.710655433983282,-0.5459127650958994,1.3863935017502858,9.731577387197632,0.0014815424994413092,-0.00042994815319159134,0.0,-4.81324625292942,-4.217319706716686,-57.5625
1772316519.8458912,-5.413963163634193,1.1217938113191888,-8.710655433983282,-0.5462469465235478,1.3870325256265545,9.734394845266774,0.0005257971731248589,-0.0009557453263164502,-0.001090830782496456,-3.6085224362091215,-3.554548610917481,-58.5
1772316519.8725002,-5.413963163634193,1.1217938113191888,-8.710655433983282,-0.5464693405305967,1.387457788877847,9.72957960872408,-0.0005257971731248589,0.0009557453263164502,0.001090830782496456,-3.6085224362091215,-3.554548610917481,-58.5
1772316519.9254887,-5.413963163634193,1.1217938113191888,-8.710655433983282,-0.5482297364229517,1.390671659179915,9.719684899179995,-0.0005257971731248589,0.0009557453263164502,0.0,-4.8049300016408925,-5.140083674351155,-58.5
1772316519.9635003,-5.413963163634193,1.1217938113191888,-8.710655433983282,-0.5539445177482059,1.3941289211585244,9.713100080509555,0.0005257971731248589,-0.0009557453263164502,-0.002181661564992912,-4.8049300016408925,-5.140083674351155,-58.5
1772316519.9885857,-5.413963163634193,1.1217938113191888,-8.710655433983282,-0.5539445177482059,1.3941289211585244,9.713100080509555,0.0005257971731248589,-0.0009557453263164502,-0.002181661564992912,-4.8049300016408925,-5.140083674351155,-58.5
1772316520.0386484,-5.413963163634193,1.1217938113191888,-8.710655433983282,-0.5577476408818722,1.3964296903851419,9.71875329236358,0.0033930331520742097,0.0006216461930581266,0.001090830782496456,-5.366182462475795,-5.8055220074871166,-58.0
1772316520.0605085,-5.413963163634193,1.1217938113191888,-8.710655433983282,-0.5570537865137224,1.3920991018865105,9.729205665116558,0.0005257971731248589,-0.0009557453263164502,0.0,-5.366182462475795,-5.8055220074871166,-58.0
1772316520.0867345,-5.413963163634193,1.1217938113191888,-8.710655433983282,-0.5549796390176119,1.38628628125768,9.73616160242301,0.0014815424994413092,-0.00042994815319159134,0.001090830782496456,-5.366182462475795,-5.8055220074871166,-58.0
1772316520.121402,-5.413963163634193,1.1217938113191888,-8.710655433983282,-0.5535993170286961,1.3824179140626545,9.737445589290223,0.002007339672566168,-0.0013856934795080417,0.0,-3.6686170843699206,-4.871617281588236,-58.75
1772316520.1668782,-5.413963163634193,1.1217938113191888,-8.710655433983282,-0.5559055184942153,1.385705283624527,9.73830006820728,0.0014815424994413092,-0.00042994815319159134,0.001090830782496456,-3.6686170843699206,-4.871617281588236,-58.75
1772316520.1927702,-5.413963163634193,1.1217938113191888,-8.710655433983282,-0.5545094074487255,1.3895053865105969,9.738868714381427,-0.0009557453263164502,-0.0005257971731248589,0.002181661564992912,-5.344372754864357,-4.937518213339934,-58.75
1772316520.243836,-5.413963163634193,1.1217938113191888,-8.710655433983282,-0.5545094074487255,1.3895053865105969,9.738868714381427,-0.0009557453263164502,-0.0005257971731248589,0.002181661564992912,-5.344372754864357,-4.937518213339934,-58.75
1772316520.2731962,-5.413963163634193,1.1217938113191888,-8.710655433983282,-0.5558928702899497,1.3921048893832315,9.733927735268464,0.0009557453263164502,0.0005257971731248589,0.0,-4.963876047429239,-3.943518839280255,-57.1875
1772316520.3317769,-5.413963163634193,1.1217938113191888,-8.710655433983282,-0.5558928702899497,1.3921048893832315,9.733927735268464,0.0009557453263164502,0.0005257971731248589,0.0,-4.963876047429239,-3.943518839280255,-57.1875
1772316520.3575487,-5.413963163634193,1.1217938113191888,-8.710655433983282,-0.5558194574039431,1.389220995130932,9.739304087360123,0.00042994815319159134,0.0014815424994413092,-0.001090830782496456,-4.963876047429239,-3.943518839280255,-57.1875
1772316520.377749,-5.413963163634193,1.1217938113191888,-8.710655433983282,-0.5557706019483812,1.3873017957212361,9.742881989619335,-0.00042994815319159134,-0.0014815424994413092,0.0,-4.8049300016408925,-5.140083674351155,-58.75
1772316520.4102042,-5.413963163634193,1.1217938113191888,-8.710655433983282,-0.5557380891884561,1.3860245899529455,9.745263043605053,0.0,0.0,0.0,-4.8049300016408925,-5.140083674351155,-58.75
1772316520.449213,-5.413963163634193,1.1217938113191888,-8.710655433983282,-0.5557164523099173,1.3851746237814715,9.733467161605155,0.0014815424994413092,-0.00042994815319159134,0.0,-3.7563277237330555,-4.063865405240981,-58.375
1772316520.4802566,-5.413963163634193,1.1217938113191888,-8.710655433983282,-0.5557164523099173,1.3851746237814715,9.733467161605155,0.0014815424994413092,-0.00042994815319159134,0.0,-3.7563277237330555,-4.063865405240981,-58.375
1772316520.5241656,-5.413963163634193,1.1217938113191888,-8.710655433983282,-0.5573144483739172,1.3875398431479344,9.728962245610179,-0.00042994815319159134,-0.0014815424994413092,0.0,-3.7563277237330555,-4.063865405240981,-58.375
1772316520.5679076,-5.413963163634193,1.1217938113191888,-8.710655433983282,-0.5538346393799212,1.3877954030212174,9.72596427433873,0.0009557453263164502,0.0005257971731248589,-0.001090830782496456,-4.36151413906909,-3.6121332913806525,-59.1875
1772316520.5959098,-5.413963163634193,1.1217938113191888,-8.710655433983282,-0.554743655696366,1.3938271999797653,9.727314269654435,0.00042994815319159134,0.0014815424994413092,0.001090830782496456,-4.36151413906909,-3.6121332913806525,-59.1875
1772316520.6239073,-5.413963163634193,1.1217938113191888,-8.710655433983282,-0.5537362007356145,1.3949104311172575,9.7282126764566,0.0005257971731248589,-0.0009557453263164502,0.0,-4.36151413906909,-3.6121332913806525,-59.1875
1772316520.6553493,-5.413963163634193,1.1217938113191888,-8.710655433983282,-0.5530657507132436,1.3956313093387738,9.732155667854899,0.0005257971731248589,-0.0009557453263164502,0.001090830782496456,-4.202568093280744,-4.808698126451552,-58.0
1772316520.6760619,-5.413963163634193,1.1217938113191888,-8.710655433983282,-0.5539380409066401,1.3915677882186532,9.734779684584367,-0.0010515943462497178,0.0019114906526329005,0.0,-4.202568093280744,-4.808698126451552,-58.0
1772316520.7072763,-5.413963163634193,1.1217938113191888,-8.710655433983282,-0.5529061451212576,1.3859326979468836,9.73987105011296,0.0,0.0,0.0,-4.413449805580491,-4.425376912040548,-58.75
1772316520.747357,23.344456953026203,14.60513224909769,126.74051960528881,-0.5522194300031168,1.3821826083191036,9.743259296997959,-0.0010515943462497178,0.0019114906526329005,0.001090830782496456,-4.413449805580491,-4.425376912040548,-58.75
1772316520.7719684,23.344456953026203,14.60513224909769,126.74051960528881,-0.5522194300031168,1.3821826083191036,9.743259296997959,-0.0010515943462497178,0.0019114906526329005,0.001090830782496456,-4.413449805580491,-4.425376912040548,-58.75
1772316520.8061955,-5.413963163634193,1.1217938113191888,-8.710655433983282,-0.5520563567342057,1.3871610854456993,9.73882391403609,-9.584901993326756e-05,0.0024372878257577593,0.0,-5.344372754864357,-4.937518213339934,-59.1875
1772316520.8293962,-5.413963163634193,1.1217938113191888,-8.710655433983282,-0.5535602284603611,1.3934050687190498,9.73252710451412,0.0009557453263164502,0.0005257971731248589,-0.001090830782496456,-5.344372754864357,-4.937518213339934,-59.1875
1772316520.8509722,-5.413963163634193,1.1217938113191888,-8.710655433983282,-0.5529486431298016,1.3946295074787665,9.72833664811722,-0.0010515943462497178,0.0019114906526329005,0.0,-5.344372754864357,-4.937518213339934,-59.1875
1772316520.8666995,-5.413963163634193,1.1217938113191888,-8.710655433983282,-0.5529486431298016,1.3946295074787665,9.72833664811722,-0.0010515943462497178,0.0019114906526329005,0.0,-5.344372754864357,-4.937518213339934,-59.1875
1772316520.899855,-5.413963163634193,1.1217938113191888,-8.710655433983282,-0.5584033646418393,1.392219567465545,9.72554794619555,0.0009557453263164502,0.0005257971731248589,0.001090830782496456,-4.051938298780925,-5.082498993887984,-59.1875
1772316520.919116,-5.413963163634193,1.1217938113191888,-8.710655433983282,-0.5588086305449328,1.3847540545898709,9.72369209621852,0.0009557453263164502,0.0005257971731248589,-0.001090830782496456,-4.051938298780925,-5.082498993887984,-59.1875
1772316520.953563,-5.413963163634193,1.1217938113191888,-8.710655433983282,-0.5623031208062605,1.3856475638840222,9.722457048790007,0.0005257971731248589,-0.0009557453263164502,0.002181661564992912,-4.473544453741289,-5.742445582711303,-59.1875
1772316520.9791486,-5.413963163634193,1.1217938113191888,-8.710655433983282,-0.5630162698741923,1.3833113219792923,9.721635138522716,0.0,0.0,0.001090830782496456,-4.473544453741289,-5.742445582711303,-59.1875
1772316521.0213556,-5.413963163634193,1.1217938113191888,-8.710655433983282,-0.5634908626125038,1.3817565790892266,9.724433278128492,0.0005257971731248589,-0.0009557453263164502,-0.001090830782496456,-4.202568093280744,-4.808698126451552,-59.5625
1772316521.0513785,-5.413963163634193,1.1217938113191888,-8.710655433983282,-0.5624044890535514,1.3771024953535054,9.727534635925332,0.0009557453263164502,0.0005257971731248589,0.0,-4.202568093280744,-4.808698126451552,-59.5625
1772316521.0940695,-5.413963163634193,1.1217938113191888,-8.710655433983282,-0.5624044890535514,1.3771024953535054,9.727534635925332,0.0009557453263164502,0.0005257971731248589,0.0,-4.202568093280744,-4.808698126451552,-59.5625
1772316521.1455176,-5.413963163634193,1.1217938113191888,-8.710655433983282,-0.5608988217259999,1.3870586936481835,9.723336904762764,0.002007339672566168,-0.0013856934795080417,0.0,-4.202568093280744,-4.808698126451552,-58.0
1772316521.1746614,-5.413963163634193,1.1217938113191888,-8.710655433983282,-0.5608988217259999,1.3870586936481835,9.723336904762764,0.002007339672566168,-0.0013856934795080417,0.0,-4.202568093280744,-4.808698126451552,-58.0
1772316521.24597,-5.413963163634193,1.1217938113191888,-8.710655433983282,-0.5568647531898082,1.3945841606723404,9.727049079152302,0.0014815424994413092,-0.00042994815319159134,-0.002181661564992912,-4.030128591169487,-4.214495199740801,-57.5625
1772316521.2905626,-5.413963163634193,1.1217938113191888,-8.710655433983282,-0.5551477674232889,1.3954141800023612,9.728036195139802,-0.0009557453263164502,-0.0005257971731248589,0.0,-4.36151413906909,-3.6121332913806525,-58.75
1772316521.3495355,-5.413963163634193,1.1217938113191888,-8.710655433983282,-0.5540051325756579,1.3959665485945667,9.725347998095357,0.0,0.0,-0.001090830782496456,-4.36151413906909,-3.6121332913806525,-58.75
1772316521.3987,-5.413963163634193,1.1217938113191888,-8.710655433983282,-0.553244721848627,1.3963341437223178,9.726904144698727,0.0010515943462497178,-0.0019114906526329005,0.001090830782496456,-4.8049300016408925,-5.140083674351155,-59.1875
1772316521.4404452,-5.413963163634193,1.1217938113191888,-8.710655433983282,-0.555669539362967,1.3949663790085618,9.721249519465333,-0.0009557453263164502,-0.0005257971731248589,0.0,-4.8049300016408925,-5.140083674351155,-59.1875
1772316521.468692,-5.413963163634193,1.1217938113191888,-8.710655433983282,-0.5572832283317739,1.3940561468704902,9.720831541246133,0.0009557453263164502,0.0005257971731248589,0.0,-3.7563277237330555,-4.063865405240981,-58.75
1772316521.4905543,-5.413963163634193,1.1217938113191888,-8.710655433983282,-0.5567447251494599,1.390519535191728,9.720553381410378,-0.0005257971731248589,0.0009557453263164502,0.001090830782496456,-3.7563277237330555,-4.063865405240981,-58.75
1772316521.5168123,-5.413963163634193,1.1217938113191888,-8.710655433983282,-0.5567447251494599,1.390519535191728,9.720553381410378,-0.0005257971731248589,0.0009557453263164502,0.001090830782496456,-3.7563277237330555,-4.063865405240981,-58.75
1772316521.5318098,-5.413963163634193,1.1217938113191888,-8.710655433983282,-0.556386357297105,1.3881659596260532,9.723713380854251,0.00042994815319159134,0.0014815424994413092,0.001090830782496456,-3.937083477132839,-3.735304364317264,-58.75
1772316521.5642164,-5.413963163634193,1.1217938113191888,-8.710655433983282,-0.556386357297105,1.3881659596260532,9.723713380854251,0.00042994815319159134,0.0014815424994413092,0.001090830782496456,-3.937083477132839,-3.735304364317264,-58.75
1772316521.6023915,-5.413963163634193,1.1217938113191888,-8.710655433983282,-0.5577602626595616,1.3895305437370926,9.725816325184642,0.0005257971731248589,-0.0009557453263164502,-0.001090830782496456,-3.937083477132839,-3.735304364317264,-58.75
1772316521.6330667,-5.413963163634193,1.1217938113191888,-8.710655433983282,-0.5586745813307481,1.390438659219586,9.72721581114509,0.00042994815319159134,0.0014815424994413092,0.001090830782496456,-4.210884344569271,-3.8859341588170837,-58.75
1772316521.653369,-5.413963163634193,1.1217938113191888,-8.710655433983282,-0.5622139125516484,1.3894306047639031,9.728147153418485,0.0,0.0,-0.002181661564992912,-4.210884344569271,-3.8859341588170837,-58.75
1772316521.6874275,-5.413963163634193,1.1217938113191888,-8.710655433983282,-0.5616384355834028,1.39037215094932,9.728766951297654,0.0024372878257577593,9.584901993326756e-05,0.001090830782496456,-4.210884344569271,-3.8859341588170837,-58.75
1772316521.7142048,-5.413963163634193,1.1217938113191888,-8.710655433983282,-0.5612554620895343,1.3909987394179548,9.729179419862646,0.0009557453263164502,0.0005257971731248589,-0.001090830782496456,-4.5339536411803465,-4.206336218091403,-58.75
1772316521.7321827,-5.413963163634193,1.1217938113191888,-8.710655433983282,-0.5612554620895343,1.3909987394179548,9.729179419862646,0.0009557453263164502,0.0005257971731248589,-0.001090830782496456,-4.5339536411803465,-4.206336218091403,-58.75
1772316521.7462409,-5.413963163634193,1.1217938113191888,-8.710655433983282,-0.5610005975074589,1.3914157270443797,9.729453913085072,0.0010515943462497178,-0.0019114906526329005,0.002181661564992912,-4.5339536411803465,-4.206336218091403,-58.75
1772316521.7604163,-5.413963163634193,1.1217938113191888,-8.710655433983282,-0.5592185928101439,1.3887623652928736,9.729636585258307,0.0009557453263164502,0.0005257971731248589,-0.001090830782496456,-4.5339536411803465,-4.206336218091403,-58.75
1772316521.7755067,-5.413963163634193,1.1217938113191888,-8.710655433983282,-0.5592185928101439,1.3887623652928736,9.729636585258307,0.0009557453263164502,0.0005257971731248589,-0.001090830782496456,-4.5339536411803465,-4.206336218091403,-58.75
1772316521.806029,-5.413963163634193,1.1217938113191888,-8.710655433983282,-0.5564202934254097,1.3840657203284048,9.729758151549012,0.0005257971731248589,-0.0009557453263164502,-0.002181661564992912,-4.744835353480094,-3.8230150036804,-58.375
1772316521.8400848,-5.413963163634193,1.1217938113191888,-8.710655433983282,-0.5545580564439213,1.3809401555695127,9.729839052557491,0.002007339672566168,-0.0013856934795080417,0.0,-4.744835353480094,-3.8230150036804,-58.375
1772316521.8578622,-5.413963163634193,1.1217938113191888,-8.710655433983282,-0.5536126865063921,1.386334247019953,9.726547779567591,0.0005257971731248589,-0.0009557453263164502,0.0,-4.744835353480094,-3.8230150036804,-58.375
1772316521.882251,-5.413963163634193,1.1217938113191888,-8.710655433983282,-0.5536126865063921,1.386334247019953,9.726547779567591,0.0005257971731248589,-0.0009557453263164502,0.0,-4.744835353480094,-3.8230150036804,-58.375
1772316521.9053264,-5.413963163634193,1.1217938113191888,-8.710655433983282,-0.5529835533734405,1.3899239546242714,9.72770258586606,9.584901993326756e-05,-0.0024372878257577593,-0.001090830782496456,-4.632490499529636,-4.545880747640403,-58.75
1772316521.936262,-5.413963163634193,1.1217938113191888,-8.710655433983282,-0.5525648723013389,1.3923128649352838,9.725125984850342,0.0,0.0,0.0,-4.632490499529636,-4.545880747640403,-58.75
1772316521.9526312,-5.413963163634193,1.1217938113191888,-8.710655433983282,-0.5525648723013389,1.3923128649352838,9.725125984850342,0.0,0.0,0.0,-4.632490499529636,-4.545880747640403,-58.75
1772316522.0041127,-5.413963163634193,1.1217938113191888,-8.710655433983282,-0.5522862447248292,1.393902658061386,9.72675639736422,0.0009557453263164502,0.0005257971731248589,0.0,-5.525128508264141,-4.608957172416217,-58.375
1772316522.0468676,-5.413963163634193,1.1217938113191888,-8.710655433983282,-0.5488760308552002,1.3890989229099848,9.727841418679304,-0.0005257971731248589,0.0009557453263164502,-0.001090830782496456,-5.525128508264141,-4.608957172416217,-58.375
1772316522.0728464,-5.413963163634193,1.1217938113191888,-8.710655433983282,-0.5466065716195472,1.3859020908279651,9.73190859995133,-0.0014815424994413092,0.00042994815319159134,-0.001090830782496456,-4.030128591169487,-4.214495199740801,-58.375
1772316522.0964925,-5.413963163634193,1.1217938113191888,-8.710655433983282,-0.5480271342085754,1.3821622396233673,9.731270151947152,0.0,0.0,-0.001090830782496456,-4.030128591169487,-4.214495199740801,-58.375
1772316522.1129198,-5.413963163634193,1.1217938113191888,-8.710655433983282,-0.5480271342085754,1.3821622396233673,9.731270151947152,0.0,0.0,-0.001090830782496456,-4.030128591169487,-4.214495199740801,-58.375
1772316522.1537037,-5.413963163634193,1.1217938113191888,-8.710655433983282,-0.5505848979078176,1.3826042727824175,9.734190383639623,9.584901993326756e-05,-0.0024372878257577593,0.0,-4.030128591169487,-4.214495199740801,-58.375
1772316522.17436,-5.413963163634193,1.1217938113191888,-8.710655433983282,-0.5538994562425387,1.3858293032707658,9.736133765209836,0.0,0.0,0.0,-4.202568093280744,-4.808698126451552,-58.0
1772316522.2028065,-5.413963163634193,1.1217938113191888,-8.710655433983282,-0.5561052577882528,1.3879755250348107,9.737427063935819,-0.0005257971731248589,0.0009557453263164502,0.002181661564992912,-4.202568093280744,-4.808698126451552,-58.0
1772316522.228169,-5.413963163634193,1.1217938113191888,-8.710655433983282,-0.5561052577882528,1.3879755250348107,9.737427063935819,-0.0005257971731248589,0.0009557453263164502,0.002181661564992912,-4.202568093280744,-4.808698126451552,-58.0
1772316522.2710469,-5.413963163634193,1.1217938113191888,-8.710655433983282,-0.5529338007839644,1.3870853970734731,9.735515398250703,-0.0010515943462497178,0.0019114906526329005,0.001090830782496456,-4.632490499529636,-4.545880747640403,-58.75
1772316522.3235676,-5.413963163634193,1.1217938113191888,-8.710655433983282,-0.5529338007839644,1.3870853970734731,9.735515398250703,-0.0010515943462497178,0.0019114906526329005,0.001090830782496456,-4.632490499529636,-4.545880747640403,-58.75
1772316522.3425274,-5.413963163634193,1.1217938113191888,-8.710655433983282,-0.5509193673438474,1.3874929742351585,9.726980212510169,9.584901993326756e-05,-0.0024372878257577593,0.0,-4.27097899273007,-5.203002829487839,-57.5625
1772316522.3702037,-5.413963163634193,1.1217938113191888,-8.710655433983282,-0.5495787843921456,1.387764212283325,9.721300141744114,0.0014815424994413092,-0.00042994815319159134,0.0,-4.27097899273007,-5.203002829487839,-57.5625
1772316522.466634,-5.413963163634193,1.1217938113191888,-8.710655433983282,-0.5519114317430165,1.3938064428921213,9.724210341514492,-0.00042994815319159134,-0.0014815424994413092,-0.001090830782496456,-4.413449805580491,-4.425376912040548,-58.75
1772316522.510137,-5.413963163634193,1.1217938113191888,-8.710655433983282,-0.5489205249738405,1.3965090126722703,9.726147046952617,0.0,0.0,0.0,-4.413449805580491,-4.425376912040548,-58.75
1772316522.559477,-5.413963163634193,1.1217938113191888,-8.710655433983282,-0.5489205249738405,1.3965090126722703,9.726147046952617,0.0,0.0,0.0,-4.413449805580491,-4.425376912040548,-58.75
1772316522.6053438,-5.413963163634193,1.1217938113191888,-8.710655433983282,-0.5527918346472407,1.395082752341341,9.727435902787272,0.0009557453263164502,0.0005257971731248589,0.001090830782496456,-3.7563277237330555,-4.063865405240981,-58.0
1772316522.6492531,-5.413963163634193,1.1217938113191888,-8.710655433983282,-0.5495064232718567,1.3973583823534153,9.728293621947772,-0.0024372878257577593,-9.584901993326756e-05,-0.002181661564992912,-3.7563277237330555,-4.063865405240981,-58.0
1772316522.6750672,-5.413963163634193,1.1217938113191888,-8.710655433983282,-0.5502508810608232,1.39726039354103,9.725519312760415,9.584901993326756e-05,-0.0024372878257577593,0.0,-3.7563277237330555,-4.063865405240981,-58.75
1772316522.722497,-5.413963163634193,1.1217938113191888,-8.710655433983282,-0.5507463094032419,1.397195183080994,9.727018152694612,-0.0014815424994413092,0.00042994815319159134,0.0,-3.7563277237330555,-4.063865405240981,-58.75
1772316522.753507,-5.413963163634193,1.1217938113191888,-8.710655433983282,-0.5507463094032419,1.397195183080994,9.727018152694612,-0.0014815424994413092,0.00042994815319159134,0.0,-3.7563277237330555,-4.063865405240981,-58.75
1772316522.7978704,-5.413963163634193,1.1217938113191888,-8.710655433983282,-0.5507463094032419,1.397195183080994,9.727018152694612,-0.0014815424994413092,0.00042994815319159134,0.0,-3.7563277237330555,-4.063865405240981,-58.75
1772316522.8654501,-5.413963163634193,1.1217938113191888,-8.710655433983282,-0.5510760114308243,1.397151786248289,9.731360725635,9.584901993326756e-05,-0.0024372878257577593,-0.001090830782496456,-5.196567467340423,-4.428201419016434,-58.75
1772316522.9037993,-5.413963163634193,1.1217938113191888,-8.710655433983282,-0.5563227598773012,1.3944182606164215,9.72948365465179,-0.0005257971731248589,0.0009557453263164502,0.0,-4.413449805580491,-4.425376912040548,-58.75
1772316522.9724286,-5.413963163634193,1.1217938113191888,-8.710655433983282,-0.5563227598773012,1.3944182606164215,9.72948365465179,-0.0005257971731248589,0.0009557453263164502,0.0,-4.413449805580491,-4.425376912040548,-58.75
1772316522.9993587,-5.413963163634193,1.1217938113191888,-8.710655433983282,-0.557717939287112,1.3936913802034046,9.726311266231402,-0.0010515943462497178,0.0019114906526329005,-0.001090830782496456,-4.413449805580491,-4.425376912040548,-58.75
1772316523.02554,-5.413963163634193,1.1217938113191888,-8.710655433983282,-0.557717939287112,1.3936913802034046,9.726311266231402,-0.0010515943462497178,0.0019114906526329005,-0.001090830782496456,-4.413449805580491,-4.425376912040548,-58.75
1772316523.048132,-5.413963163634193,1.1217938113191888,-8.710655433983282,-0.5602588107641338,1.3961385117671625,9.730890300590174,0.0,0.0,-0.001090830782496456,-4.8049300016408925,-5.140083674351155,-59.1875
1772316523.1017957,-5.413963163634193,1.1217938113191888,-8.710655433983282,-0.5603373371837297,1.394836188127758,9.73393759680477,0.0019114906526329005,0.0010515943462497178,-0.001090830782496456,-4.8049300016408925,-5.140083674351155,-59.1875
1772316523.1288707,-5.413963163634193,1.1217938113191888,-8.710655433983282,-0.5603373371837297,1.394836188127758,9.73393759680477,0.0019114906526329005,0.0010515943462497178,-0.001090830782496456,-4.8049300016408925,-5.140083674351155,-59.1875
1772316523.1448035,-5.413963163634193,1.1217938113191888,-8.710655433983282,-0.5587772004738053,1.3910386439348081,9.729275314980416,0.0013856934795080415,0.002007339672566168,0.001090830782496456,-3.8192468788697402,-4.597816414151805,-60.0
1772316523.167395,-5.413963163634193,1.1217938113191888,-8.710655433983282,-0.5587772004738053,1.3910386439348081,9.729275314980416,0.0013856934795080415,0.002007339672566168,0.001090830782496456,-3.8192468788697402,-4.597816414151805,-60.0
1772316523.2274396,-5.413963163634193,1.1217938113191888,-8.710655433983282,-0.5577389469212196,1.388511420695748,9.72617261850741,-0.0005257971731248589,0.0009557453263164502,0.0,-3.8192468788697402,-4.597816414151805,-60.0
1772316523.2770386,-5.413963163634193,1.1217938113191888,-8.710655433983282,-0.557048000780026,1.3868295818610872,9.724107808664016,0.0029630849988826185,-0.0008598963063831827,0.0,-4.413449805580491,-4.425376912040548,-58.0
1772316523.3426106,-5.413963163634193,1.1217938113191888,-8.710655433983282,-0.5582005790064036,1.3886411992628256,9.726078812485992,-0.0010515943462497178,0.0019114906526329005,-0.001090830782496456,-4.413449805580491,-4.425376912040548,-58.0
1772316523.3842854,-5.413963163634193,1.1217938113191888,-8.710655433983282,-0.5618984692997501,1.3882344152416222,9.734080716926602,0.0005257971731248589,-0.0009557453263164502,-0.001090830782496456,-4.202568093280744,-4.808698126451552,-58.75
1772316523.438037,-5.413963163634193,1.1217938113191888,-8.710655433983282,-0.564359373981831,1.3879637050195868,9.732715671530059,0.00042994815319159134,0.0014815424994413092,0.001090830782496456,-4.202568093280744,-4.808698126451552,-58.75
1772316523.4755905,-5.413963163634193,1.1217938113191888,-8.710655433983282,-0.5625436951346952,1.3863451923040238,9.735654973013688,-0.00042994815319159134,-0.0014815424994413092,-0.001090830782496456,-4.413449805580491,-4.425376912040548,-58.0
1772316523.508814,-5.413963163634193,1.1217938113191888,-8.710655433983282,-0.5557022495197371,1.3840695138708845,9.74045354478506,0.0005257971731248589,-0.0009557453263164502,-0.001090830782496456,-4.744835353480094,-3.8230150036804,-58.375
1772316523.5435815,-5.413963163634193,1.1217938113191888,-8.710655433983282,-0.5557022495197371,1.3840695138708845,9.74045354478506,0.0005257971731248589,-0.0009557453263164502,-0.001090830782496456,-4.744835353480094,-3.8230150036804,-58.375
1772316523.5738883,-5.413963163634193,1.1217938113191888,-8.710655433983282,-0.5527617390519055,1.3854859376534585,9.74364694069535,9.584901993326756e-05,-0.0024372878257577593,0.002181661564992912,-4.744835353480094,-3.8230150036804,-58.375
1772316523.6208005,-5.413963163634193,1.1217938113191888,-8.710655433983282,-0.5491924670182499,1.3834976894994366,9.745772110001077,-0.0010515943462497178,0.0019114906526329005,0.001090830782496456,-4.413449805580491,-4.425376912040548,-57.5625
1772316523.653038,-5.413963163634193,1.1217938113191888,-8.710655433983282,-0.548429551516201,1.385105394921957,9.737151051312384,-0.0014815424994413092,0.00042994815319159134,0.001090830782496456,-4.413449805580491,-4.425376912040548,-57.5625
1772316523.6701808,-5.413963163634193,1.1217938113191888,-8.710655433983282,-0.5479218397719121,1.3861753049213978,9.731413833058596,0.0,0.0,0.0,-4.654300207141073,-5.413884541787586,-59.1875
1772316523.7113051,-5.413963163634193,1.1217938113191888,-8.710655433983282,-0.5479218397719121,1.3861753049213978,9.731413833058596,0.0,0.0,0.0,-4.654300207141073,-5.413884541787586,-59.1875
1772316523.7243469,-5.413963163634193,1.1217938113191888,-8.710655433983282,-0.5475839632775996,1.386887318074348,9.727595778399627,-0.0005257971731248589,0.0009557453263164502,-0.001090830782496456,-4.654300207141073,-5.413884541787586,-59.1875
1772316523.736853,-5.413963163634193,1.1217938113191888,-8.710655433983282,-0.5475839632775996,1.386887318074348,9.727595778399627,-0.0005257971731248589,0.0009557453263164502,-0.001090830782496456,-4.654300207141073,-5.413884541787586,-59.1875
1772316523.7541692,-5.413963163634193,1.1217938113191888,-8.710655433983282,-0.5473591102449625,1.3873611548739282,9.731745129089186,-0.0014815424994413092,0.00042994815319159134,0.0,-4.654300207141073,-5.413884541787586,-59.1875
1772316523.7718947,-5.413963163634193,1.1217938113191888,-8.710655433983282,-0.5455970778985475,1.3847456256121105,9.734506475621803,-0.0015773915193745768,0.002867235978949351,0.0,-4.150632426769343,-3.995454505791656,-59.5625
1772316523.8336182,-5.413963163634193,1.1217938113191888,-8.710655433983282,-0.5444244650551994,1.3830050201057469,9.736344120892998,-0.0014815424994413092,0.00042994815319159134,0.0,-4.150632426769343,-3.995454505791656,-59.5625
1772316523.849713,-5.413963163634193,1.1217938113191888,-8.710655433983282,-0.5444244650551994,1.3830050201057469,9.736344120892998,-0.0014815424994413092,0.00042994815319159134,0.0,-4.150632426769343,-3.995454505791656,-59.5625
1772316523.8693898,-5.413963163634193,1.1217938113191888,-8.710655433983282,-0.5452564994718627,1.3847775289439341,9.740912165000456,0.0005257971731248589,-0.0009557453263164502,-0.001090830782496456,-4.752994335129491,-4.326840053691258,-59.5625
1772316523.8876655,-5.413963163634193,1.1217938113191888,-8.710655433983282,-0.5452564994718627,1.3847775289439341,9.740912165000456,0.0005257971731248589,-0.0009557453263164502,-0.001090830782496456,-4.752994335129491,-4.326840053691258,-59.5625
1772316523.9155629,-5.413963163634193,1.1217938113191888,-8.710655433983282,-0.5490349994116545,1.3918188384931955,9.740607035618252,-0.0005257971731248589,0.0009557453263164502,0.002181661564992912,-4.752994335129491,-4.326840053691258,-59.5625
1772316523.9316647,-5.413963163634193,1.1217938113191888,-8.710655433983282,-0.5490349994116545,1.3918188384931955,9.740607035618252,-0.0005257971731248589,0.0009557453263164502,0.002181661564992912,-4.752994335129491,-4.326840053691258,-59.5625
1772316523.9447615,-5.413963163634193,1.1217938113191888,-8.710655433983282,-0.5515495489129759,1.3965047513416478,9.740403975422915,-9.584901993326756e-05,0.0024372878257577593,0.0,-4.963876047429239,-3.943518839280255,-58.0
1772316523.9582508,-5.413963163634193,1.1217938113191888,-8.710655433983282,-0.5515495489129759,1.3965047513416478,9.740403975422915,-9.584901993326756e-05,0.0024372878257577593,0.0,-4.963876047429239,-3.943518839280255,-58.0
1772316523.9737906,-5.413963163634193,1.1217938113191888,-8.710655433983282,-0.553222953516747,1.3996231739972165,9.740268841131249,0.0021031886924994356,-0.003822981305265801,0.002181661564992912,-4.963876047429239,-3.943518839280255,-58.0
1772316524.010942,-5.413963163634193,1.1217938113191888,-8.710655433983282,-0.555655052781269,1.3971551919156313,9.736833799062374,0.0009557453263164502,0.0005257971731248589,0.0,-4.632490499529636,-4.545880747640403,-59.5625
1772316524.0356088,-5.413963163634193,1.1217938113191888,-8.710655433983282,-0.5572735876734796,1.3955127774095026,9.734547816937473,0.0014815424994413092,-0.00042994815319159134,-0.001090830782496456,-4.632490499529636,-4.545880747640403,-59.5625
1772316524.051764,-5.413963163634193,1.1217938113191888,-8.710655433983282,-0.5583507045640264,1.3944197689026463,9.733026521369444,0.0019114906526329005,0.0010515943462497178,0.001090830782496456,-4.632490499529636,-4.545880747640403,-59.5625
1772316524.0676606,-5.413963163634193,1.1217938113191888,-8.710655433983282,-0.5583507045640264,1.3944197689026463,9.733026521369444,0.0019114906526329005,0.0010515943462497178,0.001090830782496456,-4.632490499529636,-4.545880747640403,-59.5625
1772316524.1084857,-5.414491074105088,1.1284570144564097,-8.712713151767101,-0.5558427234925654,1.3878306592333691,9.738704339577545,-0.0011939954396415066,-0.006881915324081687,-0.006544984694978736,-4.421608787229889,-4.929201962051407,-57.5625
1772316524.1329024,-5.415019223090769,1.1351201728182505,-8.714770927711212,-0.5418623847279516,1.3749470212482404,9.749173087584289,0.018208458146487302,-0.003677835338857786,-0.001090830782496456,-4.421608787229889,-4.929201962051407,-57.5625
1772316524.1585722,-5.415019223090769,1.1351201728182505,-8.714770927711212,-0.5325586254507179,1.3663731040888036,9.7561399224392,-0.007407712497206546,0.0021497407659579566,-0.00545415391248228,-6.059079517174964,-4.546038017279533,-58.375
1772316524.179889,-5.415109486296849,1.137177588027005,-8.708106454811118,-0.5328166582413913,1.372390707431467,9.75743116150318,-0.017586811953429177,0.0002848021867835772,0.003272492347489368,-6.059079517174964,-4.546038017279533,-58.375
1772316524.2125154,-5.415109486296849,1.137177588027005,-8.708106454811118,-0.5328166582413913,1.372390707431467,9.75743116150318,-0.017586811953429177,0.0002848021867835772,0.003272492347489368,-6.059079517174964,-4.546038017279533,-58.375
1772316524.2350001,-5.415109486296849,1.137177588027005,-8.708106454811118,-0.5329883761811692,1.3763953552349757,9.744910019846895,-0.0019114906526329005,-0.0010515943462497178,0.007635815477475192,-6.059079517174964,-4.546038017279533,-58.375
1772316524.2526925,-5.421773869015515,1.1366497867099583,-8.708016281786469,-0.5288533229991752,1.3852160563021338,9.736577339944954,0.0007640472864499153,0.005400372824640378,-0.018544123302439753,-4.752994335129491,-4.326840053691258,-58.375
1772316524.2935429,-5.458939797987009,1.1276503450473385,-8.728611184345203,-0.5261014912981288,1.3910861343286407,9.731032034552346,0.018684958373137415,0.00903440096305587,-0.016362461737446838,-4.752994335129491,-4.326840053691258,-58.375
1772316524.3280098,-5.458939797987009,1.1276503450473385,-8.728611184345203,-0.5261014912981288,1.3910861343286407,9.731032034552346,0.018684958373137415,0.00903440096305587,-0.016362461737446838,-4.752994335129491,-4.326840053691258,-58.375
1772316524.3573632,-5.438127403192794,1.1467707122066728,-8.719146020339954,-0.5393695904679698,1.4363186066769982,9.727341695758685,0.0033464810786156883,-0.01060904760941422,0.006544984694978736,-4.632490499529636,-4.545880747640403,-58.375
1772316524.3971055,-5.383342419990686,1.1844981329508093,-8.7290859286522,-0.6156091965043153,1.4293352229507454,9.734921151637248,0.029058500742242803,-0.018873911539987725,0.030543261909900768,-4.632490499529636,-4.545880747640403,-58.375
1772316524.420104,-5.29417791213272,1.230617778263297,-8.791705764843977,-0.6253137296456169,1.4472613913999821,9.763380976807598,0.041863841191073496,0.0031109758383068564,0.050178215994836975,-5.015811713940639,-4.756762459940151,-57.5625
1772316524.4392688,-5.09485469812197,1.279769194556669,-8.894864188768906,-0.6675301922926322,1.4547905540401864,9.782320672541386,0.05366688424012923,0.01333937224100423,0.11780972450961724,-5.015811713940639,-4.756762459940151,-57.5625
1772316524.461615,-4.847547540585656,1.3061919736063377,-9.063122664206382,-0.7036867524202727,1.474455439465158,9.768163934823404,0.13437395005787017,0.1087852281443386,0.2683443724941282,-5.015811713940639,-4.756762459940151,-57.5625
1772316524.5384982,-3.8692226143295745,1.2359782905615162,-9.556210317216037,-0.8077636068918137,1.4664298912380913,9.75874278401321,0.1786148026361618,0.22525473635361865,0.4636030825609938,-5.347197261840242,-4.154400551580002,-57.5625
1772316524.559319,-2.161755647852731,1.2957617990953012,-10.628367737326176,-1.0522978938680319,1.4257506228722183,9.799304677292646,0.35146505047906373,0.28673194328180107,0.5857761302005968,-5.347197261840242,-4.154400551580002,-57.5625
1772316524.5757875,-2.161755647852731,1.2957617990953012,-10.628367737326176,-1.0522978938680319,1.4257506228722183,9.799304677292646,0.35146505047906373,0.28673194328180107,0.5857761302005968,-5.347197261840242,-4.154400551580002,-57.5625
1772316524.6267385,3.0215457396277183,1.6296311296822672,-13.2667438484688,-1.2458431006127244,1.6141477097104426,9.834226693018048,0.4183096917556918,0.41190175332087864,1.1322823522313212,-2.3761826282864877,-5.016598062136285,-59.25
1772316524.6664398,3.0215457396277183,1.6296311296822672,-13.2667438484688,-1.2458431006127244,1.6141477097104426,9.834226693018048,0.4183096917556918,0.41190175332087864,1.1322823522313212,-2.3761826282864877,-5.016598062136285,-59.25
1772316524.7114818,6.505587526953875,2.4212891526122426,-14.653295452301515,-1.3429952061182868,1.8834007912581958,9.819432370158978,0.4805454562242917,0.29424922916402196,1.2948161388232933,1.4027411512536507,-7.21767395097476,-61.1875
1772316524.732513,8.46019931776527,3.152758860945971,-15.343493638315087,-1.30393503938938,2.470891030474247,9.735994455998656,0.4716316081383152,0.08640882083507957,1.2217304763960306,1.4027411512536507,-7.21767395097476,-61.1875
1772316524.7815812,10.793371139128617,4.303950066518572,-16.249620772342556,-1.291579124685529,2.9421682175494888,9.680467456187534,0.38017583849078435,-0.046075597554287515,1.1442814908387824,1.4027411512536507,-7.21767395097476,-61.1875
1772316524.8284404,12.350799012642781,5.0823917731783155,-16.767973000026792,-1.286875119775764,3.269133765637243,9.676965975163657,0.28220782523382393,-0.06262179465353188,1.0450158896316049,6.9589392362525295,-11.223011057917796,-62.375
1772316524.8659027,14.392246757020196,5.7932088090368605,-16.93804723138045,-1.2866755194143278,3.485113290280185,9.768298906461316,0.1423074597282016,0.1056797420520642,0.9413869652944415,6.9589392362525295,-11.223011057917796,-62.375
1772316524.9359915,-151.1793279192509,0.0035617306019680643,0.0035619520337738606,-1.34620077961834,3.4932181480593543,9.812662159786509,0.1236443495713767,0.3319641137678027,0.9293878266869805,9.880999979909898,-15.108158868539235,-66.0
1772316524.979039,22.90219555321391,6.52837697381555,-18.6326240683281,-1.3296411322208483,3.342160412230485,9.7515596268679,0.2611347652135862,0.3490881498596629,1.0581058590215622,12.269424253934702,-21.783565559314646,-70.0
1772316525.0429046,22.90219555321391,6.52837697381555,-18.6326240683281,-1.3296411322208483,3.342160412230485,9.7515596268679,0.2611347652135862,0.3490881498596629,1.0581058590215622,12.269424253934702,-21.783565559314646,-70.0
1772316525.0738857,26.514984318763023,6.699270357562661,-20.272497373098254,-1.3041093153764887,3.2152554152323356,9.580437217185125,0.41398825123964605,0.5962757317720851,1.040652566501619,12.269424253934702,-21.783565559314646,-70.0
1772316525.1072636,29.551048369578822,6.65617944418428,-21.45873100099166,-1.2220429312869092,3.074972417224451,9.426415824615974,0.40662983568891437,0.5847574909098131,1.0297442586766545,17.532993540500726,-29.01724293430994,-74.375
1772316525.143349,30.7289867747092,6.606192157325266,-21.870556193849847,-1.1469126329050296,2.9929024152687447,9.313880973270933,0.35960661665954174,0.5638680050782104,0.978475211899321,17.532993540500726,-29.01724293430994,-74.375
1772316525.1683323,32.87079336722187,6.5114188776587385,-22.525278283411513,-1.0916403898168456,2.9564587758444243,9.22560983996819,0.33161343462862974,0.456337048812053,0.856302164259718,22.898238731670183,-39.547671476806826,-74.0
1772316525.204291,34.206804369146134,6.580386836698421,-23.015383639221547,-1.0511958558625714,2.9533098333637104,9.166866386808383,0.3175702915397152,0.39134087687650193,0.717766654882668,22.898238731670183,-39.547671476806826,-74.0
1772316525.234283,34.206804369146134,6.580386836698421,-23.015383639221547,-1.0511958558625714,2.9533098333637104,9.166866386808383,0.3175702915397152,0.39134087687650193,0.717766654882668,22.898238731670183,-39.547671476806826,-74.0
1772316525.2616017,36.2262705031781,7.145917104489789,-23.81206931663304,-0.9751948388147024,3.035487061825503,9.184640173962329,0.2890129948812686,0.19883894584208125,0.6163193921104976,23.756202655026858,-47.849722678541156,-73.1875
1772316525.2787497,36.2262705031781,7.145917104489789,-23.81206931663304,-0.9751948388147024,3.035487061825503,9.184640173962329,0.2890129948812686,0.19883894584208125,0.6163193921104976,23.756202655026858,-47.849722678541156,-73.1875
1772316525.309754,36.94413810717398,7.601520216770776,-24.23326182026033,-0.9005906734956319,3.164479604932843,9.266715776620774,0.31258625327100265,0.0835716676914914,0.5017821599483697,23.756202655026858,-47.849722678541156,-73.1875
1772316525.3311632,37.7974522682183,8.054085857208875,-24.535472102676888,-0.8509424348589227,3.2503227014296563,9.321336173345415,0.14838152056539106,0.0629560045546075,0.4232423436086249,24.364370846977906,-50.511161471806744,-72.375
1772316525.3523304,37.7974522682183,8.054085857208875,-24.535472102676888,-0.8509424348589227,3.2503227014296563,9.321336173345415,0.14838152056539106,0.0629560045546075,0.4232423436086249,24.364370846977906,-50.511161471806744,-72.375
1772316525.390304,38.48539111586503,8.298931671057055,-24.44536605507457,-0.7899035129067018,3.2426774233526037,9.230571192337717,-0.06896429920722488,0.028045223850402926,0.4526947747360292,24.364370846977906,-50.511161471806744,-72.375
1772316525.4123092,39.60544640135636,8.47236193044237,-24.012422075733525,-0.7390205652649243,3.205056162277396,9.066469648461464,-0.18471631220351353,0.06645575545086257,0.4886921905584123,25.153294792328737,-53.50116130599605,-71.5625
1772316525.4291706,40.32493645355908,8.501893908419111,-23.652739139259143,-0.7315362932386011,3.1655080768041572,8.957261904146176,-0.34266626552413404,0.09783648088781627,0.6174102228929941,25.153294792328737,-53.50116130599605,-71.5625
1772316525.4464173,41.582468150640295,8.483104061750856,-22.9978481031647,-0.7104232248080239,3.0335270501230935,8.77419668389325,-0.401117366141878,0.13166547364259265,0.6806784082777885,25.153294792328737,-53.50116130599605,-71.5625
1772316525.463725,41.582468150640295,8.483104061750856,-22.9978481031647,-0.7104232248080239,3.0335270501230935,8.77419668389325,-0.401117366141878,0.13166547364259265,0.6806784082777885,25.153294792328737,-53.50116130599605,-71.5625
1772316525.5233946,44.49557352507348,8.312172154900736,-21.64004853570816,-0.6795565528415797,2.9638915255615887,8.631505756190611,-0.3387584146909998,0.1970970834773678,0.8693921336496754,24.978188052880725,-54.738835588592195,-70.75
1772316525.5617728,46.732676122150494,8.505904173366787,-20.810245818539734,-0.6361345171000886,3.070090950244037,8.617621617095175,-0.3279932416231127,0.08474359337918579,1.0122909661567112,24.167611669557584,-54.0434285661954,-69.5625
1772316525.6154528,50.26631564155306,9.412821423037087,-19.292550581170314,-0.5632747019875289,3.1649514085194195,8.591656319086562,-0.28309780437556825,-0.10096403673203783,1.0951941056264418,24.167611669557584,-54.0434285661954,-69.5625
1772316525.665709,50.26631564155306,9.412821423037087,-19.292550581170314,-0.5632747019875289,3.1649514085194195,8.591656319086562,-0.28309780437556825,-0.10096403673203783,1.0951941056264418,24.167611669557584,-54.0434285661954,-69.5625
1772316525.6982114,53.92381137118737,10.430043057050787,-17.751546009417332,-0.4766860982627345,3.2490411209855177,8.574376703313215,-0.29820077642978116,-0.08935269172284863,1.1311915214488248,24.337226664692956,-52.66610797772472,-73.1875
1772316525.7426956,53.92381137118737,10.430043057050787,-17.751546009417332,-0.4766860982627345,3.2490411209855177,8.574376703313215,-0.29820077642978116,-0.08935269172284863,1.1311915214488248,24.337226664692956,-52.66610797772472,-73.1875
1772316525.768497,59.733594779417636,10.292642825868977,-15.831743851100795,-0.4047019659188933,3.320537980995546,8.586293093993243,-0.34136555234031163,0.4371945827877445,1.0101093045917182,24.337226664692956,-52.66610797772472,-73.1875
1772316525.8120418,61.770545576088644,9.761033516666645,-14.997808402194341,-0.33335043108883644,3.381017503979705,8.594223318875995,-0.558426569926144,0.419870614036969,1.0799224746714915,23.23088243668282,-51.56274552632959,-74.375
1772316525.8504071,64.42377850498632,9.459113765706867,-13.69054674042879,-0.19879744280003775,3.2629993835480557,8.649677470558842,-0.5327802056792716,0.14015760819442633,1.1093749057988957,23.23088243668282,-51.56274552632959,-74.375
1772316525.8906345,66.61835261821214,9.602522399817927,-13.113477056322614,-0.09312998049952717,3.155151019161235,8.686581589040312,-0.09449285545003415,0.10613153842156828,0.9413869652944415,26.13317163150899,-49.96606970463151,-76.0
1772316525.939245,69.89068426856599,9.783204069409486,-12.481624916100868,0.0684110922084181,3.0982339148663605,9.228896949516646,-0.14925239636383916,0.033675612169319684,0.6435901616729091,26.13317163150899,-49.96606970463151,-78.0
1772316525.9652648,70.5254370361867,9.825487541763211,-12.263027392119675,0.11546416072535884,3.1006083865322815,9.32627417173747,-0.11842755093537145,0.03195856442956954,0.5465062220307244,26.13317163150899,-49.96606970463151,-78.0
1772316525.9887807,71.34215815937289,9.834798231106669,-12.131348255130623,0.1863735547830535,2.856718326658748,9.391077625350583,-0.048085792867687216,0.08061670654384015,0.4690572364734761,26.13317163150899,-49.96606970463151,-78.0
1772316526.030532,71.34215815937289,9.834798231106669,-12.131348255130623,0.1863735547830535,2.856718326658748,9.391077625350583,-0.048085792867687216,0.08061670654384015,0.4690572364734761,26.13317163150899,-49.96606970463151,-78.0
1772316526.0660179,72.48196163488575,9.565565029904128,-12.324303695204087,0.24060040102069025,2.66774052704278,9.49776072226717,0.049003109971776516,0.26849054665911903,0.35124751196385884,27.934922881915924,-50.25885577270349,-78.0
1772316526.1301165,73.31473560809731,9.31649852242345,-12.245833944043985,0.25617172492643253,2.5306911462639197,9.62562403056131,-0.10263178752531321,0.23860497731887048,0.45487643630102215,27.934922881915924,-50.25885577270349,-78.0
1772316526.1655269,75.53797209336001,8.76350636015915,-11.297216744896398,0.26653426704261857,2.439486314297483,9.717405857318957,-0.32121266506499674,0.13578423662670694,0.6686792696703275,29.972190059209925,-50.85007692279923,-79.1875
1772316526.1968644,76.75737146324447,8.508108857584215,-10.849921851413985,0.2601029958156308,2.2989182051561743,9.785175861170625,-0.22358424068732702,0.19820895426215712,0.681769239060285,29.972190059209925,-50.85007692279923,-79.1875
1772316526.2171178,77.98043689219152,8.167972206370631,-10.576463417147538,0.25582305665607724,2.2053716987712995,9.840311376815324,-0.16959149193298814,0.29016318312046785,0.6719517620178169,29.972190059209925,-50.85007692279923,-79.1875
1772316526.2424092,79.21720789852813,7.757253756378603,-10.381200137060127,0.23068678326482153,2.2530290908874973,9.877003446572804,-0.21838929026763432,0.32681285978073504,0.6872233929727672,32.124312058152015,-50.094103443324244,-79.5625
1772316526.262919,80.95298988810036,7.1241645017914985,-9.883273044337907,0.19592859932776505,2.3244581588026922,9.878005827167897,-0.33069348341934157,0.3023797050846178,0.7221299780126539,32.124312058152015,-50.094103443324244,-79.5625
1772316526.3172157,82.51279839256483,6.443233668275633,-9.421557825482934,0.17279741619200958,2.3719934055852843,9.818460889524857,-0.31138687885314603,0.30802107289559943,0.6228643768054763,36.25878379126169,-48.532888055199635,-79.5625
1772316526.3463247,83.40498560767932,6.063493044398536,-9.183165892090969,0.18584754658680683,2.289466704630513,9.634994595269216,-0.18052640405661202,0.2082018454245457,0.4341506514335895,36.25878379126169,-48.532888055199635,-79.5625
1772316526.3624465,83.40498560767932,6.063493044398536,-9.183165892090969,0.18584754658680683,2.289466704630513,9.634994595269216,-0.18052640405661202,0.2082018454245457,0.4341506514335895,36.25878379126169,-48.532888055199635,-79.5625
1772316526.4191654,84.60221253446483,5.728724398684822,-8.892318056973291,0.13097885197360462,2.3240241442579657,9.465098237837394,-0.10404207409414996,0.02617754039821233,0.16907877128695067,39.06802787205122,-47.41540306892509,-79.5625
1772316526.4431896,84.64294489883382,5.799905439497863,-8.973412678102763,0.07109959299680328,2.373896407509022,9.433286814963862,-0.03139170492901862,-0.058355251597810666,0.031634092692397225,39.06802787205122,-47.41540306892509,-79.5625
1772316526.4736364,84.5795599302819,5.978657894721171,-9.02372099758376,0.051338385626348654,2.315053396584639,9.408771556691086,0.055019750011259874,-0.12037735904241421,-0.03381575425739013,39.06802787205122,-47.41540306892509,-79.5625
1772316526.4948664,84.5795599302819,5.978657894721171,-9.02372099758376,0.051338385626348654,2.315053396584639,9.408771556691086,0.055019750011259874,-0.12037735904241421,-0.03381575425739013,39.06802787205122,-47.41540306892509,-79.5625
1772316526.5310805,84.3647676673009,6.251357885666294,-9.177717130652205,0.03818752286846127,2.275894030133964,9.39245692616393,0.10773088892507265,-0.10756378397453485,-0.06763150851478027,39.73346620518718,-47.97665552975999,-80.375
1772316526.563037,84.24290622287809,6.387523880142439,-9.370544641935746,0.0017395421844716712,2.230779095191312,9.502023743257972,0.14967959964401453,-0.007295394239175923,-0.022907446432425576,39.73346620518718,-47.97665552975999,-80.375
1772316526.5930028,84.48430241260758,6.42073749305238,-9.740688534209504,-0.049490216333991754,2.277545887225723,9.658567028775499,0.12286119894163049,0.06634629283366549,0.08944812416470939,40.234466748222154,-47.20169684964946,-80.75
1772316526.6442342,84.75304186656165,6.394082595754203,-9.870950053916388,-0.09969016529945443,2.1852701005109956,9.702532825852584,0.10053672268404514,0.12503015381870203,0.2530727415391778,40.234466748222154,-47.20169684964946,-80.75
1772316526.660314,85.74897782005276,5.976441630509476,-9.726425779447307,-0.17663234001992917,2.202994878928956,9.73179157267725,-0.12828902049643312,0.18340450875980896,0.5508695451607103,41.800702071742016,-47.196047835697684,-81.5625
1772316526.678799,86.79525211976168,5.675483809024405,-9.548184008716866,-0.31194972228889634,2.1456087015353815,9.751262941847449,-0.05364503602381673,0.2219794004377902,0.41015237421866746,41.800702071742016,-47.196047835697684,-81.5625
1772316526.7129004,86.79525211976168,5.675483809024405,-9.548184008716866,-0.31194972228889634,2.1456087015353815,9.751262941847449,-0.05364503602381673,0.2219794004377902,0.41015237421866746,41.800702071742016,-47.196047835697684,-81.5625
1772316526.7393105,87.62978464135269,5.333470895778009,-9.519368393031412,-0.41167629958449714,2.1250040156785692,9.730769803447576,-0.021481049189299526,0.21103899856813388,0.36324665057131983,43.41636309407565,-48.44721557461674,-83.1875
1772316526.7640662,87.98341737790149,5.166390157795855,-9.427069882776484,-0.39539963811846346,2.217844246255448,9.717131848765815,-0.09673844523592537,0.10116111375011948,0.19525871006686563,43.41636309407565,-48.44721557461674,-83.1875
1772316526.7865853,87.98341737790149,5.166390157795855,-9.427069882776484,-0.39539963811846346,2.217844246255448,9.717131848765815,-0.09673844523592537,0.10116111375011948,0.19525871006686563,43.41636309407565,-48.44721557461674,-83.1875
1772316526.8181546,87.95608302455953,5.092643653660157,-9.161399710136275,-0.34939735342902506,2.298977124590646,9.704710830563721,-0.15646017620213049,-0.04374524900834524,0.009817477042468103,44.021549509411685,-48.89894768847707,-81.1875
1772316526.8618746,87.83604400227,5.092864898900535,-8.943096270464554,-0.19301652397990093,2.124362884819987,9.64961321779962,-0.16567529571298797,-0.11978041670650212,-0.1090830782496456,44.021549509411685,-48.89894768847707,-81.1875
1772316526.8907988,87.26809362259989,4.995993399771059,-8.545884958466255,-0.12997890189351902,1.9855855265119287,9.659777935888245,-0.1157903304506985,-0.047516188494120065,-0.17780541754692233,44.39922170987092,-47.12183065265746,-81.5
1772316526.9107015,87.26809362259989,4.995993399771059,-8.545884958466255,-0.11206282338428929,1.8952798232481158,9.6866131124728,-0.0812958843024217,0.043671248204724455,-0.136353847812057,44.39922170987092,-47.12183065265746,-81.5
1772316526.9280748,87.11167873500206,4.8810072407946485,-8.497110861877903,-0.11206282338428929,1.8952798232481158,9.6866131124728,-0.0812958843024217,0.043671248204724455,-0.136353847812057,44.39922170987092,-47.12183065265746,-81.5
1772316526.9432683,87.00900384484737,4.694095739257382,-8.496321285550824,-0.1373677173758304,1.8681524837056969,9.724542292965175,-0.057930793190651524,0.08267059828986484,-0.07526732399225546,44.39922170987092,-47.12183065265746,-81.5
1772316526.9584196,87.0243252879564,4.56102030939106,-8.513861395569998,-0.20667785349311185,1.8899559034117348,9.749783738886142,-0.04627289610800381,0.10900426414655007,0.006544984694978736,45.98726674100222,-46.248177844558505,-82.75
1772316527.0152602,87.31460500604922,4.246502406844244,-8.504544244751985,-0.33399375432045336,1.9132500053902732,9.716404963571328,-0.07881753414923787,0.10479514188853498,0.12762720155208535,45.98726674100222,-46.248177844558505,-82.75
1772316527.0318022,87.31460500604922,4.246502406844244,-8.504544244751985,-0.33399375432045336,1.9132500053902732,9.716404963571328,-0.07881753414923787,0.10479514188853498,0.12762720155208535,45.98726674100222,-46.248177844558505,-82.75
1772316527.0548306,87.5562695701236,4.076290228579359,-8.504151052444309,-0.43484501575892814,1.9580605936331672,9.680811314635394,-0.0847875113474454,0.07038556526812655,0.1341721862470641,45.98726674100222,-46.248177844558505,-82.75
1772316527.1089303,87.76865185844785,4.036761278689957,-8.342345457969286,-0.4579974682813072,2.012067467016262,9.65712413887564,-0.09687261171026847,0.017671681481297545,0.12871803233458182,47.30151090469709,-45.52515483095937,-83.1875
1772316527.133387,87.95008242449181,4.083251639984473,-7.969774506097325,-0.4524440296605274,2.009907227291557,9.664776369961851,-0.11655163286413218,-0.07781523674946289,0.06544984694978735,47.30151090469709,-45.52515483095937,-83.1875
1772316527.1747735,87.88191762096554,4.102370738094778,-7.6032387301861135,-0.3127938851907032,1.769378528772623,9.68997156757683,-0.08047430545044836,-0.03929238689097263,-0.022907446432425576,45.06450277336775,-46.25649409584703,-83.1875
1772316527.2344372,88.01372196040901,3.760677859226302,-7.6197593980888785,-0.30611392764895395,1.6886642426709149,9.666565296588756,-0.05740225114451044,0.05681617753284593,0.032724923474893676,46.01723543026306,-44.87634900040047,-82.0
1772316527.2913976,88.43670480180407,3.233440941455407,-7.7775264125964245,-0.38716902726540287,1.514926951214417,9.638396489035253,-0.0413654927481109,0.24492003314240124,0.13526301702956053,46.01723543026306,-44.87634900040047,-82.0
1772316527.328356,88.43670480180407,3.233440941455407,-7.7775264125964245,-0.38716902726540287,1.514926951214417,9.638396489035253,-0.0413654927481109,0.24492003314240124,0.13526301702956053,46.01723543026306,-44.87634900040047,-82.0
1772316527.3604145,88.70854916445259,2.851125382862016,-7.99987329062536,-0.4162760794971144,1.4630469021040566,9.725905785755657,0.01302437645104217,0.20263173354416858,0.08508480103472356,47.51223534735771,-44.48188702772505,-83.1875
1772316527.4090102,88.34966573519165,3.202609602238512,-7.947631356212369,-0.30362553080532617,1.6391663405341987,9.81955284667602,0.007541989739366974,-0.3531684846215501,-0.24434609527920614,48.11177274874197,-43.36738381806551,-81.5625
1772316527.4398487,87.72903197450195,3.786363756072472,-7.523168978978322,-0.2723246791515134,1.697417893963545,9.762835525433491,-0.10550978146069284,-0.5323940647265224,-0.3534291735288517,48.11177274874197,-43.36738381806551,-81.5625
1772316527.473094,87.72903197450195,3.786363756072472,-7.523168978978322,-0.2723246791515134,1.697417893963545,9.762835525433491,-0.10550978146069284,-0.5323940647265224,-0.3534291735288517,48.11177274874197,-43.36738381806551,-81.5625
1772316527.500719,86.28164914099135,4.68994697890324,-6.423623891625724,-0.2684916302401297,1.7115610413032054,9.68160432952543,-0.180638500779008,-0.5089851664143099,-0.40033489717619936,46.69616721972193,-43.646833699453715,-82.0
1772316527.555098,85.69210144213967,4.401738296444482,-6.417729602382205,-0.3216271638254229,1.6903376397340522,9.594094758987334,1.910334329626169e-05,0.2602174481094969,-0.018544123302439753,46.69616721972193,-43.646833699453715,-82.0
1772316527.5804617,85.69210144213967,4.401738296444482,-6.417729602382205,-0.3216271638254229,1.6903376397340522,9.594094758987334,1.910334329626169e-05,0.2602174481094969,-0.018544123302439753,46.69616721972193,-43.646833699453715,-82.0
1772316527.6122906,85.97149019684677,3.9422603713488904,-6.705070214978448,-0.3448365524999087,1.7859824948936338,9.56930923441338,0.0003066504030960855,0.25290558463222357,0.11017390903214205,44.206853389289336,-40.807620929403356,-82.75
1772316527.6341376,86.2808611465007,3.7625020636410103,-6.770366675188653,-0.41596852621477676,1.8189975694449074,9.636442537364848,0.003239652566617526,0.09142294193915335,0.09272061651219876,44.206853389289336,-40.807620929403356,-82.75
1772316527.6600406,86.34062044757334,3.7535522883032124,-6.687651060182398,-0.4458468065779117,1.6634961787090126,9.72795056445339,-0.05763226663878682,-0.024235966910218256,0.022907446432425576,44.206853389289336,-40.807620929403356,-82.75
1772316527.7073233,86.09317814354547,3.8951770524946547,-6.514454456538643,-0.43670735542789557,1.5072562177796036,9.742016570366705,-0.03109866812318637,-0.11546446593648885,-0.10799224746714914,47.17786802284309,-41.66981843995964,-82.0
1772316527.722631,86.02029342379566,3.906664913855432,-6.5163453261354025,-0.4130399786289112,1.4129546400856108,9.744687116759794,0.013002528234729685,-0.032687039134625846,-0.08290313946973066,47.17786802284309,-41.66981843995964,-82.0
1772316527.739223,86.02029342379566,3.906664913855432,-6.5163453261354025,-0.4130399786289112,1.4129546400856108,9.744687116759794,0.013002528234729685,-0.032687039134625846,-0.08290313946973066,47.17786802284309,-41.66981843995964,-82.0
1772316527.7596855,86.09765334889406,3.766953936171196,-6.600237338979861,-0.42397812765607523,1.4958677449285074,9.699632771649966,0.004189908146901525,0.14174608997368313,0.06544984694978735,47.17786802284309,-41.66981843995964,-82.0
1772316527.796037,86.24384065573447,3.552220878779169,-6.74159198917777,-0.4312573436465222,1.5510454900013866,9.669649608269387,0.006720300119576322,0.16430332659856106,0.07744898555724837,47.17786802284309,-41.66981843995964,-82.375
1772316527.8314598,86.29523685733223,3.1207825483345655,-6.9376776291039315,-0.35212269403837976,1.546154151357879,9.653041259680812,-0.02481655077585031,0.12205334445473828,-0.031634092692397225,47.17786802284309,-41.66981843995964,-82.375
1772316527.8791268,86.29523685733223,3.1207825483345655,-6.9376776291039315,-0.35212269403837976,1.546154151357879,9.653041259680812,-0.02481655077585031,0.12205334445473828,-0.031634092692397225,47.17786802284309,-41.66981843995964,-82.375
1772316527.9205194,86.17780381728092,2.8773260645799463,-7.077618795348739,-0.29784707355115086,1.5399681577716229,9.702200599954274,0.0011830159475766063,0.1064766170468915,-0.06544984694978735,46.517921434019776,-41.248212284999276,-82.0
1772316527.9486256,86.20435213651758,2.534887946292111,-7.264857246931167,-0.26172725441530725,1.5358514481420455,9.674703581028703,0.002563219681052199,0.15828130758086256,0.018544123302439753,46.517921434019776,-41.248212284999276,-82.0
1772316527.9788802,86.22541688142685,2.3206012264576716,-7.366324240454005,-0.3168232019537545,1.4895771544160892,9.676475292339479,-0.007470733808762418,0.14031109954770032,0.002181661564992912,46.517921434019776,-41.248212284999276,-82.0
1772316528.0334473,86.1636530686156,1.9984074580037485,-7.41339635000638,-0.3606691314900662,1.4510140810054577,9.677654346425488,-0.020185714983692295,0.16568627520505289,-0.0272707695624114,47.503604556790926,-40.705945024799924,-82.375
1772316528.0504014,86.04602834324538,1.9639688833483067,-7.453961678403375,-0.4071393539872626,1.4082022955559943,9.708544999114704,-0.061216997830727565,-0.019983037451760867,-0.08726646259971647,47.503604556790926,-40.705945024799924,-82.375
1772316528.0630846,86.04602834324538,1.9639688833483067,-7.453961678403375,-0.4071393539872626,1.4082022955559943,9.708544999114704,-0.061216997830727565,-0.019983037451760867,-0.08726646259971647,47.503604556790926,-40.705945024799924,-82.375
1772316528.0802433,86.06382650413654,1.9500013660208455,-7.38231497133234,-0.48935065055626503,1.3133178181957483,9.742482830237455,-0.06255339436376087,-0.035658358752557136,-0.008726646259971648,47.503604556790926,-40.705945024799924,-82.375
1772316528.1030118,86.06382650413654,1.9500013660208455,-7.38231497133234,-0.48935065055626503,1.3133178181957483,9.742482830237455,-0.06255339436376087,-0.035658358752557136,-0.008726646259971648,47.503604556790926,-40.705945024799924,-82.375
1772316528.1465,86.08286778892293,2.0003660146541593,-7.354978350587156,-0.5440613500625798,1.2501732584415666,9.811899641641702,0.015628769227337753,-0.012567090335505644,0.03381575425739013,50.293863436944896,-41.23958149443249,-82.75
1772316528.168267,86.08286778892293,2.0003660146541593,-7.354978350587156,-0.5440613500625798,1.2501732584415666,9.811899641641702,0.015628769227337753,-0.012567090335505644,0.03381575425739013,50.293863436944896,-41.23958149443249,-82.75
1772316528.2112262,86.07579445048061,2.00445674519621,-7.392642565242938,-0.5579224291724546,1.3961799682464395,9.858095754194636,-0.0005257971731248589,0.0009557453263164502,-0.017453292519943295,50.293863436944896,-41.23958149443249,-82.75
