timestamp,yaw,pitch,roll,ax,ay,az,gx,gy,gz,mx,my,mz
1772310566.1258283,162.17392680173057,1.2467304209641579,-5.514610003145256,-0.17517395776647426,-0.8726883375554491,9.821373421137636,-0.006544984694978736,0.0,0.006544984694978736,5.25,-5.5,-67.5
1772310566.5139582,162.22335762855076,1.2458743103561285,-5.534843910610268,-0.17749802213455976,-0.9020290908424407,9.795511490859402,0.003272492347489368,0.006544984694978736,-0.002181661564992912,5.25,-5.1875,-66.6875
1772310566.8187373,161.79691202777894,1.2321846910582928,-5.540359431060163,-0.19372552392970854,-0.9021763608099763,9.802787639902855,0.0,0.004363323129985824,-0.007635815477475192,5.25,-5.5,-66.25
1772310566.8537307,161.6367206606923,1.2174985630965252,-5.541189897122907,-0.23596574675354387,-0.9315543491733704,9.81189047833733,0.004363323129985824,0.002181661564992912,-0.050178215994836975,5.25,-4.75,-67.5
1772310566.9155853,161.3388456774729,1.2030862099115798,-5.544265943047378,-0.2440054729446838,-0.9611404073775345,9.807912980508148,0.001090830782496456,0.003272492347489368,-0.0545415391248228,5.25,-4.75,-67.5
1772310566.953805,161.3388456774729,1.2030862099115798,-5.544265943047378,-0.2440054729446838,-0.9611404073775345,9.807912980508148,0.001090830782496456,0.003272492347489368,-0.0545415391248228,5.25,-4.75,-67.5
1772310567.0097783,161.26061497775538,1.1923959087641818,-5.54386486393478,-0.2493558209152613,-1.0075904922730354,9.805266000134388,-0.001090830782496456,0.004363323129985824,-0.026179938779914945,4.5,-4.75,-66.25
1772310567.0497158,161.27367378858446,1.1930397935993962,-5.543612424464834,-0.25291641772237766,-1.0385025048895444,9.80350446426436,-0.002181661564992912,0.003272492347489368,0.007635815477475192,4.5,-4.75,-66.25
1772310567.1259904,161.3230468162855,1.1885253442752146,-5.541899936925237,-0.24859573170840235,-0.9854816464149981,9.80567729352782,0.0,-0.008726646259971648,0.009817477042468103,5.25,-4.75,-66.25
1772310567.1510403,161.16873702904627,1.1948506137616914,-5.546023669182306,-0.24572036343132703,-0.9501968573819848,9.80712328713056,-0.002181661564992912,-0.002181661564992912,0.013089969389957472,5.25,-4.75,-66.25
1772310567.1816812,-0.27737989333402047,1.1896845986179057,-5.547170789408554,-0.08681392159764088,0.9876572173783335,9.788014909476459,-0.0065635506834992655,0.0023887624542535315,0.004363323129985824,647.600341918663,-1937.4564118782337,-66.0
1772310567.2225187,-0.25589923388860897,1.1975957897254284,-5.547928852385037,-0.09718287585547064,0.993507747802205,9.77529849760222,-0.008979550608663909,0.0027241776325230833,0.011999138607461015,647.600341918663,-1937.4564118782337,-66.0
1772310567.239222,-0.25589923388860897,1.1975957897254284,-5.547928852385037,-0.09718287585547064,0.993507747802205,9.77529849760222,-0.008979550608663909,0.0027241776325230833,0.011999138607461015,647.600341918663,-1937.4564118782337,-66.0
1772310567.2974596,-0.23487851284794337,1.191743067294794,-5.54672901203736,-0.10408329908524784,0.9974012104445844,9.770180979258862,-0.006200898034318604,-0.002094203482350645,-0.00545415391248228,-6.278556848807218,3.35492252463391,-66.375
1772310567.3245049,-0.4546051958922404,1.1891530942780266,-5.5432115091022505,-0.08220934828632696,0.9948076286490886,9.77346555138242,-0.003852991786431738,0.01481779599380185,0.016362461737446838,-6.278556848807218,3.35492252463391,-66.375
1772310567.3434544,-0.4546051958922404,1.1891530942780266,-5.5432115091022505,-0.08220934828632696,0.9948076286490886,9.77346555138242,-0.003852991786431738,0.01481779599380185,0.016362461737446838,-6.278556848807218,3.35492252463391,-66.375
1772310567.3978255,-0.468384024661734,1.1884620510763537,-5.5432421018567855,-0.07621518085941315,1.0184356336617597,9.775651397439574,0.0013825169194448747,-0.0006844490919946597,-0.001090830782496456,-7.564392580276693,3.646311820381646,-67.0625
1772310567.4501054,-0.6674544157066862,1.1857458359697073,-5.546556950655197,-0.06761067543536078,0.9368580880350715,9.78045116528043,-0.0013688981839893196,-0.0027650338388897494,-0.00545415391248228,-7.564392580276693,3.646311820381646,-67.0625
1772310567.5257094,-0.6674544157066862,1.1857458359697073,-5.546556950655197,-0.09185393188032291,0.9713081592401882,9.760229575210364,0.0003354151782695523,0.0024159999251646418,0.004363323129985824,-7.02990405831274,3.431013724967895,-66.75
1772310567.5853982,-0.6674544157066862,1.1857458359697073,-5.546556950655197,-0.09185393188032291,0.9713081592401882,9.760229575210364,0.0003354151782695523,0.0024159999251646418,0.004363323129985824,-7.02990405831274,3.431013724967895,-66.75
1772310567.6481283,-0.6881157745820433,1.1847087024557594,-5.546600133336343,-0.08888851900554738,0.9795001444915213,9.770188114859932,-0.00036265264918066266,0.004482965936604176,0.002181661564992912,-7.02990405831274,3.431013724967895,-66.75
1772310567.6972198,-0.6881157745820433,1.1847087024557594,-5.546600133336343,-0.08691506986321654,0.9849518191658121,9.770125188337904,-0.0013688981839893196,-0.0027650338388897494,-0.001090830782496456,-7.149893079293031,3.7862990115253194,-66.375
1772310567.7559173,-0.6881157745820433,1.1847087024557594,-5.546600133336343,-0.08691506986321654,0.9849518191658121,9.770125188337904,-0.0013688981839893196,-0.0027650338388897494,-0.001090830782496456,-7.149893079293031,3.7862990115253194,-66.375
1772310567.7824416,-0.6961806952035353,1.184377285789066,-5.5469602364743995,-0.09082816203501563,0.9726918319690253,9.770083311440429,0.000698067827450215,-0.0020669660114395346,0.0,-7.344412708479491,2.9949554616930345,-66.375
1772310567.84386,-0.6961806952035353,1.184377285789066,-5.5469602364743995,-0.09339051832326732,0.9539548578603657,9.770055442832955,-0.0003490339137251075,0.0010334830057197673,0.003272492347489368,-7.344412708479491,2.9949554616930345,-66.375
1772310567.8613632,-0.6674544157066862,1.1857458359697073,-5.546556950655197,-0.0983067512403513,0.9509933626687804,9.770036896585994,0.00208058474689509,-0.0027514151034341945,-0.001090830782496456,-6.1385696576635445,2.9404230236502484,-66.75
1772310567.8802154,-0.6961806952035353,1.184377285789066,-5.5469602364743995,-0.10367736210920561,0.9447829322999627,9.780059889387775,-0.0013825169194448747,0.0006844490919946597,-0.003272492347489368,-6.1385696576635445,2.9404230236502484,-66.75
1772310567.9367895,-0.7390276650888086,1.1892022101359239,-5.548571712350986,-0.10622286867853474,0.9480587992561249,9.786730079133195,0.0003490339137251075,-0.0010334830057197673,0.002181661564992912,-6.669936995371864,2.365157865295622,-65.5625
1772310567.9713519,-0.7390276650888086,1.1892022101359239,-5.548571712350986,-0.10622286867853474,0.9480587992561249,9.786730079133195,0.0003490339137251075,-0.0010334830057197673,0.002181661564992912,-6.669936995371864,2.365157865295622,-65.5625
1772310568.0403116,-0.6812287965315021,1.1850544082970085,-5.546585780968997,-0.1015783736839101,0.952379527742051,9.79116901589787,0.0017315508331699823,-0.001717932097714427,0.001090830782496456,-6.669936995371864,2.365157865295622,-65.5625
1772310568.0747154,-0.7168415563428031,1.1833400908664211,-5.547002900677564,-0.09643058165300909,0.9571684685619418,9.789398751128749,0.0,0.0,0.004363323129985824,-7.02990405831274,3.431013724967895,-67.0625
1772310568.1406658,-0.7168415563428031,1.1833400908664211,-5.547002900677564,-0.09643058165300909,0.9571684685619418,9.789398751128749,0.0,0.0,0.004363323129985824,-7.02990405831274,3.431013724967895,-67.0625
1772310568.1583233,-0.6812287965315021,1.1850544082970085,-5.546585780968997,-0.10349913001723278,0.9520616468820798,9.786254763885253,-0.0006844490919946598,-0.0013825169194448747,-0.001090830782496456,-6.8538220071618445,3.8862898623422293,-68.25
1772310568.1853595,-0.6812287965315021,1.1850544082970085,-5.546585780968997,-0.10349913001723278,0.9520616468820798,9.786254763885253,-0.0006844490919946598,-0.0013825169194448747,-0.001090830782496456,-6.8538220071618445,3.8862898623422293,-68.25
1772310568.207857,-0.6180660947493424,1.1881512503440876,-5.546108916117724,-0.10293500662163894,0.9539730403121703,9.784162475495345,0.0017315508331699823,-0.001717932097714427,0.002181661564992912,-6.8538220071618445,3.8862898623422293,-68.25
1772310568.227962,-0.6180660947493424,1.1881512503440876,-5.546108916117724,-0.10293500662163894,0.9539730403121703,9.784162475495345,0.0017315508331699823,-0.001717932097714427,0.002181661564992912,-6.8538220071618445,3.8862898623422293,-68.25
1772310568.2622697,-0.6180660947493424,1.1881512503440876,-5.546108916117724,-0.10148925099332654,0.952075800697561,9.782770080944253,0.00036265264918066266,-0.004482965936604176,-0.001090830782496456,-7.02990405831274,3.431013724967895,-66.75
1772310568.3092055,-0.468384024661734,1.1884620510763537,-5.5432421018567855,-0.10052711677283321,0.9508132089275938,9.781843457924568,0.0,0.0,0.001090830782496456,-7.02990405831274,3.431013724967895,-66.75
1772310568.3414316,-0.468384024661734,1.1884620510763537,-5.5432421018567855,-0.10052711677283321,0.9508132089275938,9.781843457924568,0.0,0.0,0.001090830782496456,-7.02990405831274,3.431013724967895,-66.75
1772310568.371495,-0.4186486046973183,1.183976869613507,-5.541627224660402,-0.10052711677283321,0.9508132089275938,9.781843457924568,0.0,0.0,-0.001090830782496456,-6.378547699624129,3.650993596765097,-65.5625
1772310568.4116805,-0.4258839024695675,1.1905197372239817,-5.5428042202844185,-0.09988682719683839,0.9499729682087548,9.781226800656025,0.002415999925164642,-0.0003354151782695522,0.0,-6.378547699624129,3.650993596765097,-65.5625
1772310568.4275613,-0.4258839024695675,1.1905197372239817,-5.5428042202844185,-0.09988682719683839,0.9499729682087548,9.781226800656025,0.002415999925164642,-0.0003354151782695522,0.0,-6.378547699624129,3.650993596765097,-65.5625
1772310568.4568448,-0.4327735452414087,1.190174234439634,-5.542819710229469,-0.09946072163651701,0.9494137973964711,9.780816422132323,0.0,0.0,0.0,-7.02990405831274,3.431013724967895,-66.0
1772310568.4851222,-0.4327735452414087,1.190174234439634,-5.542819710229469,-0.09946072163651701,0.9494137973964711,9.780816422132323,0.0,0.0,0.0,-7.02990405831274,3.431013724967895,-66.0
1772310568.516219,-0.6812287965315021,1.1850544082970085,-5.546585780968997,-0.1000170164535244,0.9413851934886596,9.782587707737504,-0.000698067827450215,0.0020669660114395346,0.0,-7.559710803893241,2.4604669397290815,-65.5625
1772310568.561644,-0.6812287965315021,1.1850544082970085,-5.546585780968997,-0.09950559829255538,0.9331206396697488,9.78506720230004,-0.0010334830057197673,-0.0003490339137251075,-0.001090830782496456,-7.559710803893241,2.4604669397290815,-65.5625
1772310568.621681,-0.6881157745820433,1.1847087024557594,-5.546600133336343,-0.10023559302956159,0.9307899220150497,9.783372166526318,0.0,0.0,-0.001090830782496456,-6.929913207495829,3.1349426528367084,-66.0
1772310568.6842191,-0.8171294343139318,1.1866108423977786,-5.542533816696364,-0.10393240980311144,0.9387466072236822,9.785589250861015,-0.0013825169194448747,0.0006844490919946597,0.0,-6.929913207495829,3.1349426528367084,-66.0
1772310568.7582984,-0.8240153514716225,1.1862653308505948,-5.542547895118404,-0.10956185066043048,0.9429713545378137,9.780374472304663,0.0010334830057197673,0.0003490339137251075,0.001090830782496456,-6.929913207495829,3.1349426528367084,-66.375
1772310568.8402715,-0.8240153514716225,1.1862653308505948,-5.542547895118404,-0.10956185066043048,0.9429713545378137,9.780374472304663,0.0010334830057197673,0.0003490339137251075,0.001090830782496456,-6.929913207495829,3.1349426528367084,-66.375
1772310568.867622,-0.7884005744639759,1.1879786763253013,-5.542131495516171,-0.11330818066600154,0.9457828766818484,9.776904095428304,-0.0013825169194448747,0.0006844490919946597,0.001090830782496456,-6.1385696576635445,2.9404230236502484,-66.75
1772310568.9592755,-0.837786757942567,1.1855743240197285,-5.542575926494769,-0.10839248244390326,0.9466253382917043,9.774594598383736,0.000698067827450215,-0.0020669660114395346,0.0,-6.1385696576635445,2.9404230236502484,-66.75
1772310569.0353386,37.50417996821912,-2.858866405125384,4.700033778840719,-0.10611334905239332,0.9464887547791191,9.772034834513784,0.0013825169194448747,-0.0006844490919946597,0.0,-7.799688845853824,3.17103751284393,-66.375
1772310569.0682943,-0.8446722471659867,1.1852288287507973,-5.54258987945366,-0.107843990777469,0.9491940050607178,9.771354159638332,0.0003490339137251075,-0.0010334830057197673,-0.002181661564992912,-6.49853672060442,4.006278883322521,-65.5625
1772310569.0959673,-0.8446722471659867,1.1852288287507973,-5.54258987945366,-0.107843990777469,0.9491940050607178,9.771354159638332,0.0003490339137251075,-0.0010334830057197673,-0.002181661564992912,-6.49853672060442,4.006278883322521,-65.5625
1772310569.1341987,-0.9685622473413825,2.0691784192979332,-5.697521913004942,-0.10685503789254029,0.9446558177221543,9.770901178112355,0.0003490339137251075,-0.0010334830057197673,0.001090830782496456,-6.49853672060442,4.006278883322521,-65.5625
1772310569.1684465,-0.9369010264649784,1.1876475340232047,-5.544651087781663,-0.1072672386051637,0.9448049553338854,9.770599723966953,-0.0006844490919946598,-0.0013825169194448747,0.0,-6.7899260163521555,2.7204431518530465,-66.0
1772310569.21221,-0.9369010264649784,1.1876475340232047,-5.544651087781663,-0.1072672386051637,0.9448049553338854,9.770599723966953,-0.0006844490919946598,-0.0013825169194448747,0.0,-6.7899260163521555,2.7204431518530465,-66.0
1772310569.247164,-1.093474489503144,1.1869773285699952,-5.547528770801677,-0.1075415535748309,0.9449042047485162,9.770399109600651,0.0013825169194448747,-0.0006844490919946597,0.001090830782496456,-6.7899260163521555,2.7204431518530465,-66.0
1772310569.2668111,-1.1290906474674547,1.1852612429008111,-5.5479403244469685,-0.10772410712284544,0.9449702541252644,9.770265602980887,0.0013688981839893196,0.0027650338388897494,-0.001090830782496456,-7.344412708479491,2.9949554616930345,-66.375
1772310569.2950892,-1.1937755700836665,1.1902623827322094,-5.543073709191309,-0.10677525665957645,0.9418449586569996,9.7701767558168,-0.003114067752614857,0.002402381189709087,-0.001090830782496456,-7.344412708479491,2.9949554616930345,-66.375
1772310569.3345358,-1.1937755700836665,1.1902623827322094,-5.543073709191309,-0.10677525665957645,0.9418449586569996,9.7701767558168,-0.003114067752614857,0.002402381189709087,-0.001090830782496456,-7.344412708479491,2.9949554616930345,-66.375
1772310569.3854728,-1.2925367656420064,1.185449345112915,-5.5439454135829624,-0.10614380727562511,0.9397651094347073,9.77011762902159,0.0010334830057197673,0.0003490339137251075,0.001090830782496456,-7.084436496355526,2.225170674151949,-66.375
1772310569.422307,-1.178458511005369,1.1840599813554593,-5.5414944799963815,-0.10679392257457322,0.9415502436013806,9.770078280799865,-0.0017315508331699823,0.001717932097714427,-0.001090830782496456,-7.084436496355526,2.225170674151949,-66.375
1772310569.4582691,-1.178458511005369,1.1840599813554593,-5.5414944799963815,-0.10829690485397535,0.9459074810387174,9.773397206705175,-0.0003490339137251075,0.0010334830057197673,0.0,-7.02990405831274,3.431013724967895,-67.1875
1772310569.4746323,-1.178458511005369,1.1840599813554593,-5.5414944799963815,-0.10829690485397535,0.9459074810387174,9.773397206705175,-0.0003490339137251075,0.0010334830057197673,0.0,-7.02990405831274,3.431013724967895,-67.1875
1772310569.4934309,-1.2075392566202938,1.1895711422596003,-5.543099979377672,-0.10505753437061857,0.9467082610992786,9.775605914820328,0.0003354151782695523,0.0024159999251646418,0.002181661564992912,-7.02990405831274,3.431013724967895,-67.1875
1772310569.5198848,-1.2075392566202938,1.1895711422596003,-5.543099979377672,-0.10397210731029988,0.9504104218749537,9.773730673690757,-0.000698067827450215,0.0020669660114395346,-0.001090830782496456,-7.02990405831274,3.431013724967895,-67.1875
1772310569.5335622,-1.2075392566202938,1.1895711422596003,-5.543099979377672,-0.10397210731029988,0.9504104218749537,9.773730673690757,-0.000698067827450215,0.0020669660114395346,-0.001090830782496456,-7.02990405831274,3.431013724967895,-67.1875
1772310569.570515,-1.1290775550317032,1.1864651199190202,-5.541057845795095,-0.10217942991645661,0.9497049179246488,9.772482721666844,0.0,0.0,0.001090830782496456,-6.278556848807218,3.35492252463391,-66.75
1772310569.5928202,-1.1715765535699352,1.1844054354450695,-5.54148159245998,-0.10522601153725927,0.9513343257071716,9.774997335242785,0.0010334830057197673,0.0003490339137251075,0.0,-6.278556848807218,3.35492252463391,-66.75
1772310569.608743,-1.1715765535699352,1.1844054354450695,-5.54148159245998,-0.10522601153725927,0.9513343257071716,9.774997335242785,0.0010334830057197673,0.0003490339137251075,0.0,-6.278556848807218,3.35492252463391,-66.75
1772310569.6318974,-1.1715765535699352,1.1844054354450695,-5.54148159245998,-0.10725347757335683,0.9524186783847628,9.7766707824875,0.0006844490919946598,0.0013825169194448747,0.001090830782496456,647.9556272052205,-1937.3364228572534,-66.375
1772310569.657412,-0.9725156438347621,1.1859329294505083,-5.545065167654967,-0.10860273357210012,0.9531403029786867,9.781129554642547,0.0013688981839893196,0.0027650338388897494,0.002181661564992912,647.9556272052205,-1937.3364228572534,-66.375
1772310569.6809325,-0.9725156438347621,1.1859329294505083,-5.545065167654967,-0.1063313977764159,0.954690873895084,9.784096817703983,-0.0003490339137251075,0.0010334830057197673,0.002181661564992912,-6.143251434046996,4.1262679043028125,-66.75
1772310569.7056186,-0.9725156438347621,1.1859329294505083,-5.545065167654967,-0.10481984917687136,0.9557227615189343,9.786071498124867,-0.000698067827450215,0.0020669660114395346,0.003272492347489368,-6.143251434046996,4.1262679043028125,-66.75
1772310569.7288258,-0.9725156438347621,1.1859329294505083,-5.545065167654967,-0.10481984917687136,0.9557227615189343,9.786071498124867,-0.000698067827450215,0.0020669660114395346,0.003272492347489368,-6.143251434046996,4.1262679043028125,-66.75
1772310569.7441916,-0.8944022286872391,1.189707487836237,-5.544221935472599,-0.1038139304689787,0.9564094712056668,9.78738562588634,0.0003354151782695523,0.0024159999251646418,0.001090830782496456,-6.378547699624129,3.650993596765097,-66.375
1772310569.7697356,-0.8944022286872391,1.189707487836237,-5.544221935472599,-0.1038139304689787,0.9564094712056668,9.78738562588634,0.0003354151782695523,0.0024159999251646418,0.001090830782496456,-6.378547699624129,3.650993596765097,-66.375
1772310569.8031213,-0.8944022286872391,1.189707487836237,-5.544221935472599,-0.1063137533963952,0.9557961310209215,9.791605274939151,0.0003490339137251075,-0.0010334830057197673,0.001090830782496456,-6.378547699624129,3.650993596765097,-66.375
1772310569.8642788,-0.9558239338551497,1.3394450196941776,-4.663517664174225,-0.11114660822040989,0.9543176221692163,9.794413404247228,-0.0013825169194448747,0.0006844490919946597,0.001090830782496456,-6.633842135364643,3.234933503653618,-66.0
1772310569.9063098,-0.9587472851442856,1.186624263475884,-5.54503795816203,-0.11329248130905004,0.9501644404537618,9.792937071225575,0.0,0.0,0.001090830782496456,-6.633842135364643,3.234933503653618,-66.0
1772310569.9375405,-0.9587472851442856,1.186624263475884,-5.54503795816203,-0.11472053587856698,0.9474005444162065,9.791954588091386,0.0017315508331699823,-0.001717932097714427,0.0,-7.699697995036915,2.874966440712743,-66.375
1772310569.9560544,-0.9587472851442856,1.186624263475884,-5.54503795816203,-0.11472053587856698,0.9474005444162065,9.791954588091386,0.0017315508331699823,-0.001717932097714427,0.0,-7.699697995036915,2.874966440712743,-66.375
1772310569.9764018,-0.9587472851442856,1.186624263475884,-5.54503795816203,-0.11250163965149493,0.946631540288171,9.787955644833318,0.0003490339137251075,-0.0010334830057197673,-0.001090830782496456,-7.699697995036915,2.874966440712743,-66.375
1772310570.0017836,-0.9587472851442856,1.186624263475884,-5.54503795816203,-0.11250163965149493,0.946631540288171,9.787955644833318,0.0003490339137251075,-0.0010334830057197673,-0.001090830782496456,-7.699697995036915,2.874966440712743,-66.375
1772310570.0167058,-0.9587472851442856,1.186624263475884,-5.54503795816203,-0.10785573840840255,0.9471901144415183,9.785294392766197,-0.0003354151782695523,-0.0024159999251646418,-0.001090830782496456,-7.444403559296401,3.2910265338242217,-67.1875
1772310570.0304172,-0.9587472851442856,1.186624263475884,-5.54503795816203,-0.10785573840840255,0.9471901144415183,9.785294392766197,-0.0003354151782695523,-0.0024159999251646418,-0.001090830782496456,-7.444403559296401,3.2910265338242217,-67.1875
1772310570.043279,-0.9587472851442856,1.186624263475884,-5.54503795816203,-0.104763943029242,0.9475618393008888,9.783523359243661,-0.0013825169194448747,0.0006844490919946597,0.0,-7.444403559296401,3.2910265338242217,-67.1875
1772310570.0658407,-0.9587472851442856,1.186624263475884,-5.54503795816203,-0.10270638774202802,0.947809218042361,9.778999644510835,-0.0003490339137251075,0.0010334830057197673,0.002181661564992912,-7.444403559296401,3.2910265338242217,-67.1875
1772310570.093352,-0.9587472851442856,1.186624263475884,-5.54503795816203,-0.1013371076827857,0.9479738458314092,9.775989162889344,0.0010334830057197673,0.0003490339137251075,0.0,-7.204425517335817,2.580455960709373,-67.1875
1772310570.126673,-0.9587472851442856,1.186624263475884,-5.54503795816203,-0.10359511768989123,0.9470130659757919,9.777330832706845,0.0027650338388897494,-0.0013688981839893193,0.0,-7.204425517335817,2.580455960709373,-67.1875
1772310570.2233593,-0.9587472851442856,1.186624263475884,-5.54503795816203,-0.10192854753532464,0.9474440155247088,9.778223698982957,-0.0013825169194448747,0.0006844490919946597,-0.002181661564992912,-7.02990405831274,3.431013724967895,-66.75
1772310570.249815,-0.9587472851442856,1.186624263475884,-5.54503795816203,-0.10081946371426903,0.9477308076354912,9.775472779808421,-0.0010334830057197673,-0.0003490339137251075,0.002181661564992912,-7.02990405831274,3.431013724967895,-66.75
1772310570.2982512,-0.9587472851442856,1.186624263475884,-5.54503795816203,-0.10115171863085051,0.9510909151722099,9.770296962120229,-0.0006844490919946598,-0.0013825169194448747,-0.002181661564992912,-7.559710803893241,2.4604669397290815,-66.0
1772310570.3275287,-0.9372748883975908,1.192145696489602,-5.559612292750448,-0.10137283056630488,0.9533270292030356,9.76016228985177,0.014119728166351634,0.0059199577978712725,0.016362461737446838,-7.559710803893241,2.4604669397290815,-66.0
1772310570.3576941,-0.9372748883975908,1.192145696489602,-5.559612292750448,-0.10137283056630488,0.9533270292030356,9.76016228985177,0.014119728166351634,0.0059199577978712725,0.016362461737446838,-7.559710803893241,2.4604669397290815,-66.0
1772310570.4063373,-0.9384813771627972,1.1909670956647154,-5.566843621887911,-0.10151997808936757,0.9548151381115195,9.753417778668817,0.008952313137752797,0.004174788229245735,0.00545415391248228,-6.7899260163521555,2.7204431518530465,-66.375
1772310570.4401777,-0.9457131008868551,1.197503046978469,-5.568050505239715,-0.10577396584315321,0.936748191582848,9.748929381817689,-0.0013416607130782093,-0.009663999700658567,0.004363323129985824,-6.7899260163521555,2.7204431518530465,-66.375
1772310570.4694877,-0.9457131008868551,1.197503046978469,-5.568050505239715,-0.10577396584315321,0.936748191582848,9.748929381817689,-0.0013416607130782093,-0.009663999700658567,0.004363323129985824,-6.7899260163521555,2.7204431518530465,-66.375
1772310570.5217428,-0.8378415119212176,1.1808288169846743,-5.570117833768594,-0.1437172807103812,0.9764196620700293,9.792773967754412,-0.0032093989008037446,0.026548761705899954,0.0545415391248228,-7.919677866834117,3.5263227994013544,-66.375
1772310570.5518727,-0.9378130460570903,1.1748159800368265,-5.578227406071998,-0.20699913998797215,0.9899765287972951,9.821952049919187,0.0002673215009917764,0.019663414579586688,-0.003272492347489368,-7.919677866834117,3.5263227994013544,-66.375
1772310570.571462,-0.9159673795330026,1.1758458674953818,-5.577841635220007,-0.2110815033444724,1.0118425258867572,9.791193062049517,0.0,0.0,0.017453292519943295,-6.278556848807218,3.35492252463391,-68.0
1772310570.602844,-0.916315047018355,1.1827289854449332,-5.579032958288113,-0.13242633016803396,1.0468140467646583,9.770723299222661,0.0024432373960757525,-0.007234381040038371,-0.011999138607461015,-6.278556848807218,3.35492252463391,-68.0
1772310570.6205237,-0.916315047018355,1.1827289854449332,-5.579032958288113,-0.13242633016803396,1.0468140467646583,9.770723299222661,0.0024432373960757525,-0.007234381040038371,-0.011999138607461015,-6.278556848807218,3.35492252463391,-68.0
1772310570.6588783,-0.9803128773612068,1.1727431933405905,-5.578650186553451,-0.08008219105496923,1.0700872032514162,9.757100900723621,0.004147550758334625,-0.0020533472759839797,-0.01090830782496456,-7.344412708479491,2.9949554616930345,-66.75
1772310570.6969814,-0.9772520058717902,1.3188420773934488,-4.6959626007665545,-0.15686599412147437,0.9560798499082196,9.768106016938589,0.004551059613881953,-0.016884762005241385,0.004363323129985824,-7.344412708479491,2.9949554616930345,-66.75
1772310570.722497,-0.9457410143272601,1.195117211598044,-5.581819367211021,-0.2315121891557022,0.9499327427986638,9.768739575429807,0.0024840936024424177,-0.017582829832691597,0.022907446432425576,-6.8538220071618445,3.8862898623422293,-66.75
1772310570.7469878,-0.9457410143272601,1.195117211598044,-5.581819367211021,-0.2315121891557022,0.9499327427986638,9.768739575429807,0.0024840936024424177,-0.017582829832691597,0.022907446432425576,-6.8538220071618445,3.8862898623422293,-66.75
1772310570.7728393,-0.917010811686824,1.1964951531409251,-5.581415730623812,-0.2060296703725543,0.932386911391879,9.77585142494304,-0.0013825169194448747,0.0006844490919946597,-0.00545415391248228,-6.8538220071618445,3.8862898623422293,-66.75
1772310570.79646,-0.917010811686824,1.1964951531409251,-5.581415730623812,-0.18907133878075574,0.9207103565904431,9.810690286715408,-0.001677075891347761,-0.01207999962582321,0.016362461737446838,-6.8538220071618445,3.8862898623422293,-66.375
1772310570.8377714,-0.6358917688432262,1.235519539708536,-5.597207957705814,-0.048624482256263715,0.8859462135396753,9.867326277122526,0.01960893963776447,0.013530610222545862,0.10690141668465268,-6.8538220071618445,3.8862898623422293,-66.375
1772310570.855897,-0.5096193174994156,1.250747279816216,-5.668236371774126,0.10646153361937667,0.7953535158259166,9.931777789731552,0.05172862522781058,0.003653763962717739,0.07090400086226964,-6.8538220071618445,3.8862898623422293,-66.375
1772310570.8890674,-0.5096193174994156,1.250747279816216,-5.668236371774126,0.10646153361937667,0.7953535158259166,9.931777789731552,0.05172862522781058,0.003653763962717739,0.07090400086226964,-6.8538220071618445,3.8862898623422293,-66.375
1772310570.9583752,-0.4750811635859801,0.10778775966957664,-5.84392704839414,0.2800835270685385,0.7802656981958245,10.228395901320562,-0.12233386015659051,0.31790925690614097,-0.09926560120717749,-7.344412708479491,2.9949554616930345,-66.0
1772310570.9863107,-0.4750811635859801,0.10778775966957664,-5.84392704839414,0.386859510479545,0.9188497535039354,10.493196315126022,-0.10768805451559156,0.27795245359679516,0.09490227807719166,-6.5699461445549545,2.0690867931644354,-65.5625
1772310571.0375774,0.49524041161259985,-0.8251577767367502,-5.600672755597756,0.26599788917279193,0.857991320554482,10.960442751035902,-0.18004899597064772,0.08311289910325673,0.3981532356112064,-6.5699461445549545,2.0690867931644354,-65.5625
1772310571.101207,2.021165608134363,-0.891356858192438,-4.88283182273358,0.16795476729192702,0.7232747191500679,11.271390034649242,-0.3040210472425338,-0.05777269253368429,0.5966844380255614,-3.7214214835842916,1.4478724534700167,-64.0
1772310571.1449454,4.610646813766158,-0.2534404109024126,-3.4858559982957016,-0.01782065396354395,0.558510511947442,11.065444820746183,-0.3849393585071317,-0.35682204025211633,0.8726646259971648,-3.7214214835842916,1.4478724534700167,-64.0
1772310571.1826909,6.46077630304857,0.5211359477168366,-2.496737801265447,-0.08896553131851226,0.6104466388403372,10.762563413725207,-0.2685900375064733,-0.46950749087381827,0.842121364087264,-2.4662185396746796,-1.0967781747303735,-60.5
1772310571.2166352,7.787376457889828,1.2801360309209788,-1.9065941463642315,-0.13631165245788995,0.6450095511230075,10.450610534418216,-0.1845783018631499,-0.5171243683415416,0.8170322560898455,-2.4662185396746796,-1.0967781747303735,-60.5
1772310571.251782,8.942640855967456,2.057503742538394,-1.3964874542777717,-0.20448829658331413,0.577950851765236,10.135965803347185,-0.11981790641652965,-0.49410174877114005,0.6621342849753488,-0.08048344921919759,-4.644949263921165,-56.75
1772310571.2746298,9.906151313503551,2.6473271442834894,-0.974481320258647,-0.23808537575339295,0.4984622799400146,9.899812355972804,-0.0883655388638058,-0.33495393141763213,0.5563236990731926,-0.08048344921919759,-4.644949263921165,-56.75
1772310571.2983558,10.771384638826312,2.6838617621294323,-0.8373104753844105,-0.2445976036837609,0.4509152123869372,9.742654874752011,-0.10327515368657961,-0.14080387922420767,0.5061454830783556,-0.08048344921919759,-4.644949263921165,-56.75
1772310571.34458,11.665519445658175,2.304026472824973,-0.8276913741140159,-0.26070513453744326,0.4541349265632895,9.638068326563669,-0.1459934785155983,0.019775876782448024,0.38724492778624187,1.1448670031944612,-9.640502038016304,-53.25
1772310571.361109,12.019312091191061,2.1006443021184635,-0.7455174411007316,-0.26508601520631786,0.45841828600151985,9.56846714705262,-0.14731295496588473,0.09186598441729552,0.30652344988150415,1.1448670031944612,-9.640502038016304,-53.25
1772310571.3933563,12.443903848734815,1.8017623804184366,-0.6162435502386929,-0.2703091693341496,0.5099196733696574,9.66933325470619,-0.09938789979080298,0.18519268584755236,0.22252947962927702,1.1448670031944612,-9.640502038016304,-53.25
1772310571.4262772,12.443903848734815,1.8017623804184366,-0.6162435502386929,-0.2703091693341496,0.5099196733696574,9.66933325470619,-0.09938789979080298,0.18519268584755236,0.22252947962927702,1.1448670031944612,-9.640502038016304,-53.25
1772310571.4843001,13.414723344890975,0.7288821687668724,-0.9016020890152986,-0.19877524580996733,0.6166375444399825,9.83127085417802,-0.03260644774722922,0.3079148952353322,0.29343348049154666,2.394607874656714,-10.801666972122035,-53.25
1772310571.5216408,14.387139865903622,-0.055448475659288565,-1.110775124534547,-0.22477565251067688,0.5274188551870327,9.693696159259007,-0.02670010868481348,0.29724464999986494,0.3370667117914049,5.76698644019485,-13.950654954109098,-50.875
1772310571.5734246,15.548462616677536,-0.5722605839776749,-1.488834145559156,-0.24207863272642555,0.468044814127256,9.49509816196622,0.09235471800479306,0.28564130611498617,0.545415391248228,5.76698644019485,-13.950654954109098,-50.875
1772310571.6258073,15.548462616677536,-0.5722605839776749,-1.488834145559156,-0.24207863272642555,0.468044814127256,9.49509816196622,0.09235471800479306,0.28564130611498617,0.545415391248228,5.76698644019485,-13.950654954109098,-50.875
1772310571.6760225,20.147206479841984,-1.163001809382435,-3.68120994093166,-0.22005273112575066,0.5069435570498876,9.239164280082045,0.3598462606060737,0.24702770440762103,0.8355763793922852,8.94796656080216,-18.68154973969682,-51.25
1772310571.730806,24.77527758575647,-0.3868886169086871,-5.619205682933863,-0.1885199117323508,0.5455907639801062,9.068843140656917,0.3056895576065453,-0.015350898106882978,0.9861110273767962,8.94796656080216,-18.68154973969682,-51.25
1772310571.8022602,24.77527758575647,-0.3868886169086871,-5.619205682933863,-0.1885199117323508,0.5455907639801062,9.068843140656917,0.3056895576065453,-0.015350898106882978,0.9861110273767962,8.94796656080216,-18.68154973969682,-51.25
1772310571.8240058,27.63389063066078,0.2978465843123348,-6.118358357075996,-0.16539449705028414,0.5649715472932363,9.146167692298489,0.16974140338436114,-0.0935022041022766,1.1257373675363425,10.773262118117277,-25.45352894657908,-52.5
1772310571.8484325,30.3446964932195,0.9009211348841244,-6.253052074517308,-0.27973525192479676,0.4810949439605949,9.200971429351437,0.09769215195588032,-0.10517012934521626,1.2642728769133924,10.773262118117277,-25.45352894657908,-52.5
1772310571.8830042,30.3446964932195,0.9009211348841244,-6.253052074517308,-0.27973525192479676,0.4810949439605949,9.200971429351437,0.09769215195588032,-0.10517012934521626,1.2642728769133924,10.773262118117277,-25.45352894657908,-52.5
1772310571.954167,33.53783444720756,1.7149474622647276,-6.311827855607119,-0.4031159288440637,0.3457523967591648,9.244132927576956,0.09860811955061943,-0.16242882225080635,1.4453507868078042,10.637956703357053,-26.22487432624798,-52.5
1772310571.993896,40.88098338459972,4.205842635280548,-6.432291303227546,-0.4852243910813677,0.25568344347192773,9.266166199085873,0.140134589756571,-0.3706168901978491,1.834777376159039,10.637956703357053,-26.22487432624798,-52.5
1772310572.0702286,48.56868685658899,6.327416707287202,-5.635676409940894,-0.5055478159109924,0.3450324416767488,9.240687754659456,0.08992818112197773,-0.23559326909774025,1.7333301133868686,12.141720945930242,-31.654144475426257,-53.25
1772310572.1146631,54.198553458711785,6.747375819328442,-5.218483767078903,-0.36555985525452894,0.6399365280774825,9.009644985238108,0.04958851233097395,0.10885618398696444,1.6177020504422441,12.141720945930242,-31.654144475426257,-53.25
1772310572.1409736,56.817587596996816,6.690279257406115,-5.115737125629382,-0.27239943120563564,0.8361919032826739,8.778951033836698,0.06947333899706643,0.22725379905548745,1.5653421728824144,12.366382594110895,-33.491345714767434,-52.5
1772310572.1822076,59.53640049975137,6.520196216468275,-5.062436248379293,-0.22438463085479887,0.757293021461451,8.62542678619935,0.05844900663975475,0.31103401619606635,1.6177020504422441,12.366382594110895,-33.491345714767434,-52.5
1772310572.2126021,64.12074709936832,5.981996394256194,-4.747099922911833,-0.19243131758178075,0.7047866969676863,8.767451269009227,-0.08653822634103488,0.3380578927540083,1.6177020504422441,13.837663929498166,-35.69914863444596,-52.0625
1772310572.2275019,65.8744414110033,5.705051647978333,-4.469953700998835,-0.0996784214850862,0.7822560614346256,8.875347422631052,-0.20066572203212327,0.3248440257661571,1.5282539262775348,13.837663929498166,-35.69914863444596,-52.0625
1772310572.25705,65.8744414110033,5.705051647978333,-4.469953700998835,-0.0996784214850862,0.7822560614346256,8.875347422631052,-0.20066572203212327,0.3248440257661571,1.5282539262775348,13.837663929498166,-35.69914863444596,-52.0625
1772310572.3038225,68.36713374366833,5.393720688344125,-4.099977415220445,0.04852064714794605,0.9018532867119422,8.93377066075809,-0.18125095700995347,0.2128107335574194,1.457349925415265,13.837663929498166,-35.69914863444596,-52.0625
1772310572.322911,72.2618509491461,4.988127324766352,-3.4333675657995704,0.15891918774353475,0.946582147648073,8.892367992125635,-0.18045755803431437,0.186597387029789,1.3580843242080878,20.726309732037652,-43.39982816661422,-50.0625
1772310572.3404984,72.2618509491461,4.988127324766352,-3.4333675657995704,0.15891918774353475,0.946582147648073,8.892367992125635,-0.18045755803431437,0.186597387029789,1.3580843242080878,20.726309732037652,-43.39982816661422,-50.0625
1772310572.4076116,75.34401292647205,4.513998546062835,-2.988992748255076,0.2261332077760078,0.9530518501620642,8.86481497864885,-0.1744881785027402,0.24733280033717459,1.3820826014230096,20.726309732037652,-43.39982816661422,-50.0625
1772310572.4513578,80.42028800151628,3.569932812786495,-2.398375224894255,0.27728541413911384,0.9383418613697877,8.976938112552833,-0.15838319673768236,0.27464772354780254,1.279544507868343,20.343714083243434,-36.602388717121215,-47.75
1772310572.4804482,82.4313446394094,3.2554197898677595,-2.226776078926271,0.3102562982559596,0.9317217787405401,9.178669050546597,-0.10873010304864755,0.1923998294166796,1.1737339219661866,20.343714083243434,-36.602388717121215,-47.75
1772310572.508529,84.24281000968728,3.081429710233323,-1.9931185341424267,0.316351800373458,0.9219644986508649,9.39989164068952,-0.14478800515707563,0.06393470579195068,1.0221084431991792,20.343714083243434,-36.602388717121215,-47.75
1772310572.5376697,86.32255857249504,3.097991932131838,-1.3682727219311077,0.2608452371291342,0.9977463645846572,9.620705260772407,-0.28750750341380926,-0.1339422572495886,0.5770494839406252,25.772984232421706,-35.098624474548025,-47.0
1772310572.5785959,87.52196424190016,3.106846584713615,-0.49934033664854854,0.18904448284159647,1.036404633912311,9.82452115731224,-0.2663576752392526,-0.07383681809237544,0.39051742013373125,25.772984232421706,-35.098624474548025,-47.0
1772310572.659682,87.94804337146536,3.335295403260153,-0.10169792318047177,0.0719977611752067,0.9222248630794382,10.24783796651622,-0.04958851233097395,-0.10885618398696444,0.08508480103472356,29.858765027832085,-33.718750733274675,-45.25
1772310572.6886883,87.93175769449951,3.611983357142516,0.06349574496237786,-0.09113118782452113,0.7327156635281176,10.683425712819561,-0.053717391145733685,-0.19890539283913974,-0.04690572364734761,29.858765027832085,-33.718750733274675,-45.25
1772310572.7489557,87.93175769449951,3.611983357142516,0.06349574496237786,-0.09113118782452113,0.7327156635281176,10.683425712819561,-0.053717391145733685,-0.19890539283913974,-0.04690572364734761,29.858765027832085,-33.718750733274675,-45.25
1772310572.811585,86.39138793712591,4.6483615024274,0.2549476644433555,-0.22771378235039416,0.4700292929044976,10.973304492150485,0.008024267696460566,-0.19762677259521996,-0.3196134192714616,32.31796090293159,-30.843205237565453,-43.375
1772310572.8427963,86.20410444887003,3.871442419616719,-0.4661526442295246,-0.3164672976593799,0.28887594647216697,10.804943517246583,0.22673320533037147,0.5866264856984216,-0.05781403147231216,32.31796090293159,-30.843205237565453,-43.375
1772310572.894416,86.20171075205084,2.525965962085024,-1.3488738278013024,-0.06494521277004031,0.2732135234380826,10.375115556968014,0.1603128650470759,0.7219310470349778,0.004363323129985824,32.31796090293159,-30.843205237565453,-43.375
1772310572.925855,85.91617326293674,0.6919779779499231,-2.4043809836452916,0.35441566835706334,0.3586304557252159,9.854139659394676,0.12791223922058248,0.7155939616461036,-0.1832595714594046,35.116345374744675,-28.776660573660173,-38.5625
1772310572.941276,85.72642413927986,0.02153507789804378,-2.754926062411769,0.4876611722130201,0.4967102708440431,9.782507551230424,0.11355242702415025,0.6831116234068768,-0.19198621771937624,35.116345374744675,-28.776660573660173,-38.5625
1772310572.985653,85.72642413927986,0.02153507789804378,-2.754926062411769,0.4876611722130201,0.4967102708440431,9.782507551230424,0.11355242702415025,0.6831116234068768,-0.19198621771937624,35.116345374744675,-28.776660573660173,-38.5625
1772310573.028092,85.40777388081392,-1.5021422029014884,-3.4940722416835746,0.5634905128567628,0.6266318524410719,9.758252965381429,0.07179752009325906,0.4249214278570741,-0.05672320068981571,36.70888679574182,-26.65558347171211,-34.5625
1772310573.0528724,85.53394102476899,-1.7153490856974394,-3.840181517688322,0.5586723914145011,0.7826914381495611,9.79563359675751,0.08246930621762873,0.1683180302585496,0.05126904677733343,36.70888679574182,-26.65558347171211,-34.5625
1772310573.0727146,85.53394102476899,-1.7153490856974394,-3.840181517688322,0.5586723914145011,0.7826914381495611,9.79563359675751,0.08246930621762873,0.1683180302585496,0.05126904677733343,36.70888679574182,-26.65558347171211,-34.5625
1772310573.105664,85.84541913307322,-1.6565332546871314,-3.905116768936586,0.4382037135617982,0.8469448501607738,9.82050998936928,0.03983928789836514,-0.04296192117831623,0.22252947962927702,37.990040750827845,-25.761127886807277,-34.5625
1772310573.1299908,86.53926113061083,-1.2579666152968023,-3.983213853729704,0.3178197086256731,0.8937773151375733,9.960834083935715,0.05160254428949369,-0.13915755312298791,0.2781618495365963,37.990040750827845,-25.761127886807277,-34.5625
1772310573.1611981,86.79893422411706,-1.027784008711231,-3.963148659717356,0.24441986485926426,0.8318816668070973,10.054218201346833,0.03796803739142272,-0.18060582323542304,0.2628902185816459,37.990040750827845,-25.761127886807277,-34.5625
1772310573.1761131,87.1082859664213,-0.6161187458083032,-3.8707678015680957,0.10049557104257324,0.7585806699563841,10.11301917660767,0.024052590256904406,-0.23826802499656044,0.19634954084936207,40.50171770327664,-26.16626383502404,-33.75
1772310573.1893713,87.3077297613273,-0.26516267862993337,-3.7555704829431042,-0.07978386689062557,0.6777313039115206,9.84774540342776,0.009965152769583213,-0.3397400218534754,0.18653206380689397,40.50171770327664,-26.16626383502404,-33.75
1772310573.2186499,87.3077297613273,-0.26516267862993337,-3.7555704829431042,-0.07978386689062557,0.6777313039115206,9.84774540342776,0.009965152769583213,-0.3397400218534754,0.18653206380689397,40.50171770327664,-26.16626383502404,-33.75
1772310573.251283,87.41081508718922,0.4388804759976161,-3.7512722675624053,-0.23461957547927334,0.6121532380428845,9.671208670678741,0.18995967379840872,-0.4090549892331945,0.06763150851478027,40.50171770327664,-26.16626383502404,-33.75
1772310573.2867844,87.59991847429939,1.590793989197469,-3.923480725431591,-0.3058849783301612,0.5580589667000042,9.874856170981449,0.18422532508879588,-0.35457494890194974,0.09708393964218458,40.28798019999071,-27.09603398387218,-38.5625
1772310573.303894,87.44979796758925,2.299318730937143,-4.014348390614959,-0.3860323887176627,0.5039476163002055,10.010381307541264,0.13531115543357794,-0.28474246957491955,-0.06763150851478027,40.28798019999071,-27.09603398387218,-38.5625
1772310573.3338711,87.44979796758925,2.299318730937143,-4.014348390614959,-0.3860323887176627,0.5039476163002055,10.010381307541264,0.13531115543357794,-0.28474246957491955,-0.06763150851478027,40.28798019999071,-27.09603398387218,-38.5625
1772310573.371801,87.47729487036192,2.68962728065727,-4.0869554521006926,-0.5361701599660958,0.33638458812510985,10.080501101762934,0.1747333157409402,-0.30942349309309397,0.08508480103472356,40.28798019999071,-27.09603398387218,-38.5625
1772310573.405834,88.31901786629012,4.363426558466201,-4.102158546789929,-0.6360851695831317,0.22487326467625432,10.033501913723088,0.14382415671753607,-0.3440408910210381,0.19634954084936207,39.80675305143997,-30.359058145826502,-43.75
1772310573.4497886,88.31901786629012,4.363426558466201,-4.102158546789929,-0.6360851695831317,0.22487326467625432,10.033501913723088,0.14382415671753607,-0.3440408910210381,0.19634954084936207,39.80675305143997,-30.359058145826502,-43.75
1772310573.4932036,89.09202096131742,4.9131510196380415,-3.8419150492733043,-0.6295331734433265,0.4048302144374632,9.95204780348811,-0.024625007687449775,-0.3157298286918401,0.36979163526629855,39.80675305143997,-30.359058145826502,-43.75
1772310573.5333655,90.11523518414629,5.676023194941645,-3.481334784203013,-0.5639285570098939,0.5523348116383613,9.948017678638553,0.012362480751172985,-0.2479728809035857,0.38069994309126315,41.08195416551296,-32.96292298845313,-46.0625
1772310573.5536025,90.50283818198619,5.9726974582893115,-3.3425782179058667,-0.47302299864480424,0.7405991675700814,9.905194335082786,-0.0032265299554762,-0.14385841882688097,0.18216874067690814,41.08195416551296,-32.96292298845313,-46.0625
1772310573.5745342,90.59339991688398,6.104066341818299,-3.2531841238205974,-0.3515743687213147,0.967678877853246,9.876695878314514,-0.024934726283710636,-0.06253505781783336,-0.004363323129985824,41.08195416551296,-32.96292298845313,-46.0625
1772310573.6138716,90.59339991688398,6.104066341818299,-3.2531841238205974,-0.3515743687213147,0.967678877853246,9.876695878314514,-0.024934726283710636,-0.06253505781783336,-0.004363323129985824,41.08195416551296,-32.96292298845313,-46.0625
1772310573.647168,90.08763308509064,5.909738619193534,-3.0898488987384476,-0.2582417111745458,1.1653915979698972,9.653678659537368,-0.09030796482583085,0.06966905450156351,-0.20725784867432664,40.116089156657594,-33.618961123525196,-47.0
1772310573.6709778,89.69259234084858,5.572290215361106,-3.110328182395595,-0.1961298701712696,1.296967204611731,9.505263191706746,-0.1586676492933466,0.08457712843543491,-0.22907446432425577,40.116089156657594,-33.618961123525196,-47.0
1772310573.7248626,89.27666937919537,4.9862590994387626,-2.8760581723469385,-0.23344171882540973,1.2096776016294448,9.540298824067648,-0.1120433986249764,0.15789138137237996,-0.06981317007977318,41.077272389129504,-31.777078107800566,-47.25
1772310573.7494352,89.36697077575549,4.789661647602003,-2.918410361508595,-0.25506132387343283,1.142079594161477,9.717489784566864,-6.458135806087736e-05,0.19110407811808738,0.10144726277217041,41.077272389129504,-31.777078107800566,-47.25
1772310573.7713013,89.36697077575549,4.789661647602003,-2.918410361508595,-0.25506132387343283,1.142079594161477,9.717489784566864,-6.458135806087736e-05,0.19110407811808738,0.10144726277217041,41.077272389129504,-31.777078107800566,-47.25
1772310573.798521,89.68282864023656,4.391914131986165,-3.203475577916991,-0.16803291062461298,1.1313446852376743,9.83540838942637,0.09123095705900375,0.22078557952017705,0.13308135546456762,41.787842962244355,-31.537100065839983,-47.25
1772310573.8375788,89.70251032795719,3.8719812048436126,-3.7978259519378827,-0.10925495016826733,1.1739219205861446,9.89046612177201,0.12248914999613301,0.25436949444240137,-0.022907446432425576,41.787842962244355,-31.537100065839983,-47.25
1772310573.8599539,89.4838544474689,3.6509758116587823,-4.12015111135161,-0.05746187171472608,1.2065379463325328,9.886965087125033,0.1403988294797579,0.174065997703618,-0.1461713248545251,43.34897129961773,-31.47164348290248,-47.25
1772310573.8890183,89.1691983427444,3.4893529635929394,-4.511140186374484,-0.013361116278546992,1.199720291805836,9.824423176944839,0.16164904201062277,0.12137198314736541,-0.18871372537188688,43.34897129961773,-31.47164348290248,-47.25
1772310573.923518,88.56027111764774,3.0707618375955685,-4.941844392404913,0.0012532915233516527,1.1760841896525318,9.782802234358835,0.008811072575077919,0.1273226907353647,-0.12980886311707826,43.32429135307089,-30.226584387823674,-46.875
1772310573.9799688,88.5404254042782,3.0944891525776765,-4.916480743749844,-0.09043700223958347,1.1261038177751599,9.872182871760419,-0.04963442174545994,-0.009854661997036343,-0.026179938779914945,43.32429135307089,-30.226584387823674,-46.875
1772310574.004043,88.71902575957677,3.1337330506156107,-4.932320593769293,-0.23817949792940593,1.0882687474874035,9.931664687504032,0.005208271234965502,-0.00860327922402769,0.19634954084936207,43.32429135307089,-30.226584387823674,-46.875
1772310574.0235393,88.71902575957677,3.1337330506156107,-4.932320593769293,-0.23817949792940593,1.0882687474874035,9.931664687504032,0.005208271234965502,-0.00860327922402769,0.19634954084936207,43.32429135307089,-30.226584387823674,-46.875
1772310574.046403,89.2442234243709,3.1554847468067804,-4.9530948558595655,-0.3365004784191675,1.0630899308563297,9.921072495816198,0.01888363433940314,0.022496542095754215,0.2399827721492203,44.10031850912325,-31.547734683236463,-46.5
1772310574.0608985,89.2442234243709,3.1554847468067804,-4.9530948558595655,-0.3365004784191675,1.0630899308563297,9.921072495816198,0.01888363433940314,0.022496542095754215,0.2399827721492203,44.10031850912325,-31.547734683236463,-46.5
1772310574.098675,89.76777024896263,3.197699664283843,-5.002152175528868,-0.38266591203390055,0.9892871990220863,9.907333287155838,0.01826727892468626,0.003866610521887293,0.2181661564992912,44.10031850912325,-31.547734683236463,-46.5
1772310574.1186085,89.97851821334649,3.3016630235172637,-4.87638461032382,-0.39321912536862696,0.9222689025230986,9.837977986537638,-0.04494717477702243,-0.06123425331112182,0.08290313946973066,44.99009231764463,-31.643043757669922,-46.0
1772310574.134371,89.97851821334649,3.3016630235172637,-4.87638461032382,-0.39321912536862696,0.9222689025230986,9.837977986537638,-0.04494717477702243,-0.06123425331112182,0.08290313946973066,44.99009231764463,-31.643043757669922,-46.0
1772310574.151383,89.99520537751651,3.3378779759806103,-4.781450685265312,-0.390609130663827,0.84914571953041,9.852034819457446,-0.05573493542347032,-0.12474831919285272,0.017453292519943295,44.99009231764463,-31.643043757669922,-46.0
1772310574.1824608,89.81999472893838,3.646280505701959,-4.6387122796166524,-0.34145873800320203,0.8482723939881752,9.740965463276968,-0.015347385787666076,-0.13183289414288,-0.05672320068981571,43.372870950100655,-32.51906176453919,-46.5
1772310574.240259,89.4296208335495,3.8643525434115498,-4.485117810776289,-0.21795353425415584,0.892478342264664,9.660359824050225,-0.0012685138276811046,-0.11556448755235549,-0.16471544815696484,43.372870950100655,-32.51906176453919,-46.5
1772310574.2575927,89.24701591175803,3.8888205426959055,-4.51170553942247,-0.16573165948873506,1.0106359235686524,9.606717671568816,0.004297356848345731,-0.03999765951571248,-0.1189005552921137,43.34897129961773,-31.47164348290248,-47.1875
1772310574.2922468,89.24701591175803,3.8888205426959055,-4.51170553942247,-0.16573165948873506,1.0106359235686524,9.606717671568816,0.004297356848345731,-0.03999765951571248,-0.1189005552921137,43.34897129961773,-31.47164348290248,-47.1875
1772310574.3111074,89.18103239015403,3.816822006545455,-4.597485390413595,-0.23873310527172012,1.0528769884724485,9.584399865143823,-0.006015288946060157,0.038266108682542495,0.001090830782496456,43.34897129961773,-31.47164348290248,-47.1875
1772310574.3337286,89.29948688757933,3.600474334581026,-4.680850379304629,-0.24968587724325045,0.9277518162999192,9.837156550859772,0.003212911220020638,0.1473079017577654,0.05672320068981571,43.05290022748654,-31.571634333719388,-46.5
1772310574.372097,89.56818228325679,3.2452275127594126,-4.761181593937722,-0.2791595787745201,0.8369900472873468,10.005363301726556,-0.014012319171609618,0.22899391541599365,0.14726215563702155,43.05290022748654,-31.571634333719388,-46.5
1772310574.4201558,89.56818228325679,3.2452275127594126,-4.761181593937722,-0.2791595787745201,0.8369900472873468,10.005363301726556,-0.014012319171609618,0.22899391541599365,0.14726215563702155,43.05290022748654,-31.571634333719388,-46.5
1772310574.470502,90.06457249845913,2.267993393509589,-4.557727106684318,-0.30921721418163156,0.7913914890488308,9.764931443045684,-0.09264225233826216,0.04930757209452661,0.03381575425739013,42.912913036342864,-31.157134832735725,-45.1875
1772310574.5176203,90.10620625530004,2.336473730671069,-4.577906519113884,-0.30429344323510576,0.8288113394637594,9.639512687088258,0.039326829159173377,-0.0005346430019835528,-0.013089969389957472,43.44896215043464,-31.767714555033667,-43.6875
1772310574.5554342,90.08571133908035,2.8245467751666795,-4.718856666566563,-0.32135314706642043,0.913929593130522,9.813621507481486,0.08398098585319536,-0.21457457506961983,-0.032724923474893676,43.44896215043464,-31.767714555033667,-43.6875
1772310574.6225548,90.13094461323718,3.135568658140735,-5.039358949917148,-0.36007558122264977,0.936616370065487,9.929488982530218,0.14819663188159338,-0.0535726382638419,0.04581489286485115,43.564269395031474,-30.937154960938525,-42.875
1772310574.6711345,90.21656588567184,2.961538479688194,-5.268906117935243,-0.4207066850930675,0.9399404507754276,9.839341907484677,0.0830090024277316,0.1189917862204481,0.06435901616729091,43.564269395031474,-30.937154960938525,-42.875
1772310574.7492726,90.57955494038879,2.8972771118903715,-5.326617571753102,-0.4289458731185449,0.8470750716353534,9.779350036050678,-0.06737562319549888,-0.059598033626140724,0.09708393964218458,43.272880099283746,-32.222990692408,-43.6875
1772310574.7912743,90.27436605865965,2.958081524632764,-5.2111059449474375,-0.21891992054612266,0.8580571702865725,9.906681701130436,0.03205159191276834,0.007370568394593923,-0.07417649320975901,43.272880099283746,-32.222990692408,-43.6875
1772310574.8797104,90.01105476811372,2.944248364418079,-5.598994998543803,-0.12089316985121233,0.988966407297041,9.991419501853118,0.10365647827933516,0.044218357159444215,-0.05999569303730508,42.73839157731979,-32.00769259699425,-43.25
1772310574.9340298,89.88336428774507,2.7111876719091756,-5.7302297941611675,-0.18670883716200118,1.04594853212956,9.890591311406794,-0.0682507345838713,-0.012687789513203868,-0.032724923474893676,42.73839157731979,-32.00769259699425,-43.25
1772310574.982435,89.88336428774507,2.7111876719091756,-5.7302297941611675,-0.18670883716200118,1.04594853212956,9.890591311406794,-0.0682507345838713,-0.012687789513203868,-0.032724923474893676,42.73839157731979,-32.00769259699425,-43.25
1772310575.0411873,89.88699581871573,2.484462219651098,-5.521656094845579,-0.2262270773072907,1.0711924973108762,9.823491276989452,-0.10881027457247844,-0.049413009658954156,0.016362461737446838,43.56895117141493,-32.12299984159109,-43.375
1772310575.0880191,89.87604591923312,2.5326637537382135,-5.469768527244445,-0.21428620338837914,1.0479456799569231,9.77214673022657,-0.013045388954265201,-0.015919372676799392,0.003272492347489368,43.56895117141493,-32.12299984159109,-43.375
1772310575.1305764,89.60067081275905,2.5211361706171593,-5.466055357243354,-0.14595687260099172,1.0104992427570207,9.768083513277915,0.009677618436114123,-0.004791143643962619,-0.1189005552921137,43.44428037405118,-30.5818696743811,-44.0
1772310575.1616943,89.2557330315176,2.502224312524248,-5.45801595762756,-0.10048446625062318,0.9855790571045979,9.735273482421817,-0.012628261363262318,-0.03420027033694121,-0.23452861823673804,43.44428037405118,-30.5818696743811,-44.0
1772310575.2125425,88.40966892533666,2.441795822048057,-5.447555357502135,-0.2842699013959059,1.0071428679372973,9.67662303372946,-0.029046474043797923,0.017822913862772266,-0.19853120241435498,43.79956566060861,-30.461880653400808,-43.375
1772310575.2489378,87.8516894782185,2.3351299107265207,-5.429566633474775,-0.2842699013959059,1.0071428679372973,9.67662303372946,-0.029046474043797923,0.017822913862772266,-0.19853120241435498,43.79956566060861,-30.461880653400808,-43.375
1772310575.3058197,87.96870008240563,2.4399253645609185,-5.546057396665269,-0.36805636960229027,1.093423820113468,9.687444422647879,0.012537983423192758,-0.0303064223441428,0.15162547876700738,43.3803843832415,-29.41602296389192,-43.75
1772310575.3214195,88.18862510503094,2.468288803050019,-5.5545978977879376,-0.3818571165389635,1.1121692343825333,9.65150306303932,0.03619914267110297,0.005317221118609943,0.22143864884678055,43.3803843832415,-29.41602296389192,-43.75
1772310575.3562124,88.18862510503094,2.468288803050019,-5.5545978977879376,-0.3818571165389635,1.1121692343825333,9.65150306303932,0.03619914267110297,0.005317221118609943,0.22143864884678055,43.3803843832415,-29.41602296389192,-43.75
1772310575.411264,88.72818420613405,2.4347900399563613,-5.567585295205603,-0.39104135946087487,1.1246440981785981,9.681106277028228,0.01011693028990879,0.05868206603140163,0.2378011105842274,42.57294414356537,-30.15049318748969,-44.0625
1772310575.4507573,89.10672342158237,2.433989284171849,-5.49605786980165,-0.28408892423678017,1.164069302857735,9.687426438419001,-0.02265491371310155,-0.02837564368725882,0.08399397025222712,42.57294414356537,-30.15049318748969,-44.0625
1772310575.4822032,89.21116186559495,2.5872906534277087,-5.448973620318517,-0.2075615842810497,1.1744600832099532,9.691632435223731,0.005049899617618166,-0.05586255725068965,0.04145156973486533,43.62036242520208,-30.126593537006766,-43.0
1772310575.5130694,89.21069992057909,2.5896390149337885,-5.464429436691152,-0.18832600031362004,1.1706716533595736,9.694431479113216,-0.020751372527128678,0.013716219310804304,-0.01090830782496456,43.62036242520208,-30.126593537006766,-43.0
1772310575.544249,89.24801655717143,2.540979088180835,-5.465041802680363,-0.24067475593290422,1.0578794343506481,9.769886669115326,-0.030900593496067906,0.05058619233844637,0.03381575425739013,43.62036242520208,-30.126593537006766,-43.0
1772310575.5655406,89.4419289658731,2.288721377699776,-5.491306551136246,-0.2755122680236215,0.9828174725718516,9.820101255172029,-0.014070306432648741,0.06893518367586596,0.09272061651219876,43.80424743699206,-31.64772553405337,-43.75
1772310575.6360993,89.72121347747593,2.2989780208681734,-5.505535469970676,-0.26597516228253754,0.9509767925988328,9.789961378820017,0.017342745802610932,-0.02407828683891309,0.09817477042468103,43.80424743699206,-31.64772553405337,-43.75
1772310575.6539807,89.78971303455859,2.3332248475997197,-5.499349410311605,-0.2596283249482979,0.9297871757604896,9.769903627792232,-0.018698025251144695,0.01786377006913893,-0.019634954084936207,43.088995087493764,-30.701858695361395,-42.5625
1772310575.6676135,89.78971303455859,2.3332248475997197,-5.499349410311605,-0.2596283249482979,0.9297871757604896,9.769903627792232,-0.018698025251144695,0.01786377006913893,-0.019634954084936207,43.088995087493764,-30.701858695361395,-42.5625
1772310575.6962893,89.75152325163937,2.317424315847941,-5.492506685113246,-0.13180380256501747,0.9574288970565222,9.990713238055358,-0.024844448343641082,0.001971634863250647,-0.02399827721492203,43.088995087493764,-30.701858695361395,-42.5625
1772310575.7282658,89.53657295736707,2.29569066330259,-5.504899941038794,-0.15547934302548944,0.9214457396796462,10.137659567080503,0.010375686263564339,-0.006858109655402152,-0.08399397025222712,43.564269395031474,-30.937154960938525,-43.375
1772310575.76694,89.3856894288971,2.275454668763034,-5.525965442903601,-0.19157156912291978,0.9577151116262862,9.99460266462169,-0.007528940011941256,-0.015207686113893622,-0.08399397025222712,43.564269395031474,-30.937154960938525,-43.375
1772310575.813809,89.20940098621247,2.1724191519308946,-5.55336036913897,-0.2155905424141769,0.9818519735013437,9.89939989408566,-0.00837681392940258,0.024803592137274417,-0.05235987755982989,43.564269395031474,-30.937154960938525,-43.375
1772310575.8458931,89.09542086320471,2.0949849092516097,-5.623594452070003,-0.236926589881076,1.0137610384061349,9.836043513778561,-0.0030868302817037467,-0.004496584672059732,-0.05126904677733343,43.564269395031474,-30.937154960938525,-43.375
1772310575.925522,89.04604128317902,2.0440980908849484,-5.701432581919402,-0.25112549113103044,1.0349961646526629,9.797225662128646,-0.009677618436114123,0.004791143643962619,-0.01090830782496456,43.860340467162665,-30.837164110121616,-43.75
1772310575.9573736,89.04283516024243,2.030044683506699,-5.693812664812348,-0.25950436349053957,1.0459586533671534,9.771392815479444,-0.01903344042941425,0.015447770143974289,0.00545415391248228,43.860340467162665,-30.837164110121616,-43.75
1772310575.9938557,-161.33465235436955,-0.0023062177789650185,147.61928109937514,-0.2554056063157357,1.014152722249358,9.757546456313525,-0.017650923509969375,0.014763321051979628,0.002181661564992912,43.74035144618237,-30.48187882356419,-45.0
1772310576.013117,-161.33465235436955,-0.0023062177789650185,147.61928109937514,-0.2554056063157357,1.014152722249358,9.757546456313525,-0.017650923509969375,0.014763321051979628,0.002181661564992912,43.74035144618237,-30.48187882356419,-45.0
1772310576.0436382,89.05145467094712,1.8521334839038581,-5.708027214643923,-0.2655219829246123,1.0310172374740456,9.748331858962572,-0.0017451695686255375,0.005167415028598836,0.006544984694978736,43.74035144618237,-30.48187882356419,-45.0
1772310576.0604057,89.04998415314027,1.8722378525980254,-5.736596787277506,-0.245788213174929,1.0370557462759247,9.725474088822713,0.01731550833169982,-0.01717932097714427,-0.006544984694978736,43.52037157438517,-29.83052246487558,-44.0625
1772310576.0857072,89.04367903670072,1.8800587201540666,-5.748320510686984,-0.2326556098471667,1.041074306429012,9.710262498132659,0.014564093228265629,-0.01925990572403936,-0.006544984694978736,43.52037157438517,-29.83052246487558,-44.0625
1772310576.147546,89.03527354023059,1.8452739874944595,-5.772528398905566,-0.18588500194528237,1.0565926670432242,9.75700625347746,-0.004106694551967959,-0.008295101516669248,-0.006544984694978736,42.67293499438228,-30.446564259620878,-43.75
1772310576.1802797,89.03527354023059,1.8452739874944595,-5.772528398905566,-0.18588500194528237,1.0565926670432242,9.75700625347746,-0.004106694551967959,-0.008295101516669248,-0.006544984694978736,42.67293499438228,-30.446564259620878,-43.75
1772310576.2137594,89.05452413920847,1.8520204424338287,-5.76836120494939,-0.21373805690112416,1.0011019353668493,9.788113700497464,-0.008979550608663909,0.0027241776325230833,0.016362461737446838,42.67293499438228,-30.446564259620878,-43.75
1772310576.2369509,89.05540802532695,1.839956894064467,-5.751219715177864,-0.216845329281641,1.0753060581816738,9.77870935363045,-0.016535728091516277,-0.00558454261960172,-0.004363323129985824,43.22430050225398,-29.930513315692487,-45.25
1772310576.26166,89.05262855856346,1.8252688714895648,-5.718405926758754,-0.20684712854815493,1.0157796894275968,9.77245086584389,-0.024858067079096633,0.005421117794135058,0.004363323129985824,43.22430050225398,-29.930513315692487,-45.25
1772310576.295538,89.05262855856346,1.8252688714895648,-5.718405926758754,-0.20684712854815493,1.0157796894275968,9.77245086584389,-0.024858067079096633,0.005421117794135058,0.004363323129985824,43.22430050225398,-29.930513315692487,-45.25
1772310576.343761,89.05608333628683,1.7537654704048418,-5.726047724084783,-0.21094854099838964,1.0434607026997362,9.81008415141491,-0.006926203332679929,0.006871728390857708,-0.006544984694978736,44.21562575372009,-30.717175089141325,-45.375
1772310576.3991253,89.03173342343086,1.7279792449513083,-5.7522909936994235,-0.20103278323652193,1.051716997402326,9.820091336948549,0.010375686263564339,-0.006858109655402152,-0.01090830782496456,44.21562575372009,-30.717175089141325,-44.5625
1772310576.418685,89.03173342343086,1.7279792449513083,-5.7522909936994235,-0.20103278323652193,1.051716997402326,9.820091336948549,0.010375686263564339,-0.006858109655402152,-0.01090830782496456,44.21562575372009,-30.717175089141325,-44.5625
1772310576.4662595,89.02945098859469,1.7493544804415058,-5.831231822559774,-0.21867586128744473,1.0349014266434178,9.826751007133597,0.03696530417583096,-0.013997159547251637,0.002181661564992912,44.21562575372009,-30.717175089141325,-44.5625
1772310576.4917526,88.85827131665143,1.7452248066987743,-6.010914366927821,-0.19440151265668956,1.0111591383028453,9.831182943248356,0.08478646267538759,0.018272332132805588,-0.05999569303730508,43.97564771175951,-30.006604516026474,-43.75
1772310576.5278876,88.67666088978713,1.7263624583105908,-5.866220963944737,-0.1655702024424802,0.9996402618717964,9.77057522478569,-0.11161616461773485,-0.03769566268231161,-0.11344640137963143,43.97564771175951,-30.006604516026474,-43.75
1772310576.5532534,88.65517122507214,1.6952918499245797,-5.835747838648052,-0.13460957164938667,0.957112821783835,9.68340990127889,-0.045944854784494865,0.016721337179774722,0.008726646259971648,43.79956566060861,-30.461880653400808,-44.1875
1772310576.5838778,88.65517122507214,1.6952918499245797,-5.835747838648052,-0.13460957164938667,0.957112821783835,9.68340990127889,-0.045944854784494865,0.016721337179774722,0.008726646259971648,43.79956566060861,-30.461880653400808,-44.1875
1772310576.6210713,88.6490377846395,1.7082323584819197,-5.818300912149945,-0.13755304953424016,0.9985347984626884,9.612021905356302,-0.007850736454755255,-0.021073168969942675,-0.009817477042468103,43.79956566060861,-30.461880653400808,-44.1875
1772310576.6536863,88.71585030202336,1.7029468349683394,-5.780506346639015,-0.127654659593479,0.9700827255668315,9.577894438355262,-0.01413334690180719,-0.0024704748669868632,0.026179938779914945,43.088995087493764,-30.701858695361395,-43.75
1772310576.6753223,88.71585030202336,1.7029468349683394,-5.780506346639015,-0.127654659593479,0.9700827255668315,9.577894438355262,-0.01413334690180719,-0.0024704748669868632,0.026179938779914945,43.088995087493764,-30.701858695361395,-43.75
1772310576.7027218,88.75134370702654,1.696712892724086,-5.768596036528792,-0.12320806728059487,0.9574866900664598,9.658881453221756,-0.013127101366998531,0.004777524908507063,0.025089107997418487,43.088995087493764,-30.701858695361395,-43.75
1772310576.7374163,88.76834470551624,1.668273697536362,-5.7631086846003905,-0.12024890976806125,0.9491041691478984,9.716122518638494,-0.0031413052235259673,0.009301347051477905,0.004363323129985824,43.62036242520208,-30.126593537006766,-45.375
1772310576.7646482,88.76834470551624,1.668273697536362,-5.7631086846003905,-0.12024890976806125,0.9491041691478984,9.716122518638494,-0.0031413052235259673,0.009301347051477905,0.004363323129985824,43.62036242520208,-30.126593537006766,-45.375
1772310576.821085,88.76361642850664,1.634299159413593,-5.812633932501222,-0.20085438798146138,1.0314904862904068,9.737198991992718,0.001786025774992203,-0.015515863821252064,-0.0272707695624114,44.8669821124087,-30.49719521734412,-44.1875
1772310576.8596325,88.76361642850664,1.634299159413593,-5.812633932501222,-0.20085438798146138,1.0314904862904068,9.737198991992718,0.001786025774992203,-0.015515863821252064,-0.0272707695624114,44.8669821124087,-30.49719521734412,-44.1875
1772310576.8858466,88.77935604725538,1.6310426064310017,-5.8065740192458195,-0.22090663105832378,1.0806698585358532,9.728100625338506,0.005167415028598836,0.0017451695686255375,0.014180800172453928,44.8669821124087,-30.49719521734412,-44.1875
1772310576.9169703,88.7739182506726,1.6268020092568936,-5.80113622266302,-0.20255866892103516,1.1241015594977724,9.745461545916777,0.008281482781213694,-0.0006572116210835494,-0.007635815477475192,44.0956367327398,-30.3618898025839,-44.1875
1772310576.9490318,88.7739182506726,1.6268020092568936,-5.80113622266302,-0.18671966324841965,1.037716223729744,9.757015044627428,-0.007597033689219034,0.002039728540528424,0.001090830782496456,44.0956367327398,-30.3618898025839,-44.1875
1772310576.974483,88.7739182506726,1.6268020092568936,-5.80113622266302,-0.14979640221097493,0.9961992892368353,9.771393992372968,0.0007116865629057701,-0.005516448942323944,0.0,42.4329569524217,-29.735993686506028,-45.375
1772310577.004371,88.77443549914962,1.6170737645562328,-5.799422884445417,-0.17276314331046924,0.9525151659531119,9.760892351230337,0.0010198642702642122,0.003798516844609517,0.003272492347489368,42.4329569524217,-29.735993686506028,-45.375
1772310577.0380878,88.77164498363483,1.5899014090983112,-5.809503541370782,-0.2019616444896812,0.9646441275701462,9.753903626360934,0.005167415028598836,0.0017451695686255375,-0.001090830782496456,42.4329569524217,-29.735993686506028,-45.375
1772310577.0690577,88.77206762659499,1.576748510547552,-5.8272530803937315,-0.23102596114776028,1.001239071352941,9.749252708029518,-0.0020669660114395346,-0.000698067827450215,0.004363323129985824,43.52037157438517,-29.83052246487558,-43.75
1772310577.1051323,88.77258631016377,1.5670208544006072,-5.825539916195003,-0.24719868862335065,1.0266629354582995,9.752847797248762,0.0024432373960757525,-0.007234381040038371,-0.009817477042468103,43.52037157438517,-29.83052246487558,-43.75
1772310577.130335,88.77834392143647,1.5306861629177357,-5.834379306139648,-0.2472580799949937,1.0118897271105365,9.75524028896439,0.0006844490919946598,0.0013825169194448747,0.007635815477475192,43.32429135307089,-30.226584387823674,-43.75
1772310577.1527984,88.77834392143647,1.5306861629177357,-5.834379306139648,-0.2472580799949937,1.0118897271105365,9.75524028896439,0.0006844490919946598,0.0013825169194448747,0.007635815477475192,43.32429135307089,-30.226584387823674,-43.75
1772310577.1874275,88.77853956394884,1.5232541866609952,-5.8481205929319104,-0.247297604289377,1.0020583219826507,9.756832465475258,-0.0017179320977144272,-0.0017315508331699823,-0.006544984694978736,43.32429135307089,-30.226584387823674,-43.75
1772310577.2305183,88.77929847161684,1.5078059638464112,-5.850417778168369,-0.25366240844711546,0.9933749560736019,9.757892041157463,-0.004831999850329284,0.0006708303565391044,-0.006544984694978736,44.63012525470375,-30.57718789799765,-44.0625
1772310577.2502487,88.78057759078881,1.48262945687257,-5.851002993268827,-0.22633089712779167,1.0300339199095272,9.761942288645054,0.0010198642702642122,0.003798516844609517,0.00545415391248228,44.63012525470375,-30.57718789799765,-44.0625
1772310577.3052173,88.77753260781412,1.4594715607588111,-5.866800008401798,-0.2334960863831348,1.0458673483531502,9.764637683103818,0.00208058474689509,-0.0027514151034341945,-0.006544984694978736,43.22430050225398,-29.930513315692487,-44.1875
1772310577.3789961,88.77926881136013,1.4211459488200506,-5.8851349271671145,-0.23404008531391995,1.0623841967578995,9.7609349384422,-0.0010334830057197673,-0.0003490339137251075,0.001090830782496456,42.96900606651347,-30.34657340880397,-43.375
1772310577.4477925,88.77951319554755,1.4154264657101372,-5.8891443514966895,-0.22269668637042053,1.051591606106094,9.763967302796656,-0.00032179644281399723,-0.005865482856049051,-0.004363323129985824,42.96900606651347,-30.34657340880397,-43.375
1772310577.4651294,88.77951319554755,1.4154264657101372,-5.8891443514966895,-0.22269668637042053,1.051591606106094,9.763967302796656,-0.00032179644281399723,-0.005865482856049051,-0.004363323129985824,42.96900606651347,-30.34657340880397,-43.375
1772310577.5320098,88.77483457331938,1.3957259808960085,-5.885996928318975,-0.22782478345027382,1.0401279063475906,9.769330419108137,-0.00208058474689509,0.0027514151034341945,0.0,43.8756568609426,-29.710533443895287,-45.0
1772310577.576021,88.77581831024222,1.372846884561642,-5.9020344942503336,-0.23226604974255738,1.0250901032246662,9.772899513103493,-0.0003354151782695523,-0.0024159999251646418,-0.004363323129985824,43.8756568609426,-29.710533443895287,-45.0
1772310577.6402068,88.77581831024222,1.372846884561642,-5.9020344942503336,-0.23522166284787693,1.0150826132296276,9.77861981699533,0.0003490339137251075,-0.0010334830057197673,0.003272492347489368,44.390147212743166,-29.8666173248828,-45.0
1772310577.7140474,88.77785411962492,1.3305123886040149,-5.914648822629659,-0.23085008917176367,1.0105634160493493,9.782426615335366,-0.0003490339137251075,0.0010334830057197673,0.001090830782496456,44.390147212743166,-29.8666173248828,-45.0
1772310577.755514,88.77785411962492,1.3305123886040149,-5.914648822629659,-0.23085008917176367,1.0105634160493493,9.782426615335366,-0.0003490339137251075,0.0010334830057197673,0.001090830782496456,44.390147212743166,-29.8666173248828,-45.0
1772310577.8128405,88.77887550522398,1.3093453528396084,-5.92095645720806,-0.22584194294353305,1.011795529209501,9.784959997105936,0.0013825169194448747,-0.0006844490919946597,0.0,43.32429135307089,-30.226584387823674,-45.375
1772310577.863598,88.77964847033967,1.293897871345921,-5.923254760662656,-0.2246079903537595,1.0083758983530895,9.783300822667202,-0.0003490339137251075,0.0010334830057197673,0.001090830782496456,43.32429135307089,-30.226584387823674,-45.375
1772310577.8979802,88.77989921158924,1.2881784610031957,-5.927264407032855,-0.2227582337191798,1.013509011209485,9.775506437197778,-0.0013825169194448747,0.0006844490919946597,-0.003272492347489368,43.735669669798924,-29.296033942911627,-44.1875
1772310577.9492435,88.78067344549949,1.2727310444723634,-5.929562964039374,-0.22255581631224153,1.0095162014832306,9.777009584151507,0.0,0.0,-0.001090830782496456,43.735669669798924,-29.296033942911627,-44.1875
1772310578.0173202,88.77570920068365,1.2553203992416828,-5.941863025638209,-0.2237876345703507,1.016359714848793,9.773104372257922,-0.000698067827450215,0.0020669660114395346,0.0,44.15016917078258,-29.156046751767953,-44.5625
1772310578.0561652,88.77570920068365,1.2553203992416828,-5.941863025638209,-0.2237876345703507,1.016359714848793,9.773104372257922,-0.000698067827450215,0.0020669660114395346,0.0,44.15016917078258,-29.156046751767953,-44.5625
1772310578.0895538,88.77623280320034,1.2455921089002462,-5.940151627936987,-0.2285507972906375,1.01668147628187,9.772065925059536,0.0003490339137251075,-0.0010334830057197673,-0.001090830782496456,44.0956367327398,-30.3618898025839,-44.5625
1772310578.1360688,88.77673978099801,1.2341529102931041,-5.948170901717068,-0.23279096668319035,1.0200648555119427,9.774719961756546,0.0,0.0,0.001090830782496456,44.0956367327398,-30.3618898025839,-44.5625
1772310578.168556,88.7769938686385,1.2284333595894898,-5.952180548257158,-0.23454241423792263,1.0191472060040627,9.776486193530873,0.0010334830057197673,0.0003490339137251075,-0.001090830782496456,43.088995087493764,-30.701858695361395,-44.1875
1772310578.2010362,88.7769938686385,1.2284333595894898,-5.952180548257158,-0.23454241423792263,1.0191472060040627,9.776486193530873,0.0010334830057197673,0.0003490339137251075,-0.001090830782496456,43.088995087493764,-30.701858695361395,-44.1875
1772310578.2353144,88.77751794169794,1.2187050727046056,-5.950469393468993,-0.23570798302064588,1.0185365205073855,9.777661601046587,-0.000698067827450215,0.0020669660114395346,0.001090830782496456,43.088995087493764,-30.701858695361395,-44.1875
1772310578.2536328,88.77751794169794,1.2187050727046056,-5.950469393468993,-0.23648365602529178,1.0181301161311507,9.775098709910813,0.0,0.0,0.001090830782496456,42.96900606651347,-30.34657340880397,-44.5625
1772310578.3068476,88.77751794169794,1.2187050727046056,-5.950469393468993,-0.23066135656370673,1.0200003341790325,9.770048022782005,0.0,0.0,0.0,42.96900606651347,-30.34657340880397,-44.5625
1772310578.3507297,88.77751794169794,1.2187050727046056,-5.950469393468993,-0.22678668131136842,1.0212449433981934,9.766686846917656,-0.000698067827450215,0.0020669660114395346,0.001090830782496456,43.79956566060861,-30.461880653400808,-44.5625
1772310578.3940883,88.77751794169794,1.2187050727046056,-5.950469393468993,-0.2273773788045667,1.021002879120133,9.767795133634046,0.002415999925164642,-0.0003354151782695522,0.0,43.79956566060861,-30.461880653400808,-44.5625
1772310578.446126,88.77751794169794,1.2187050727046056,-5.950469393468993,-0.22986939416822177,1.0166021996462324,9.778568021185388,-0.0010334830057197673,-0.0003490339137251075,0.001090830782496456,43.79956566060861,-30.461880653400808,-44.1875
1772310578.4658222,88.77751794169794,1.2187050727046056,-5.950469393468993,-0.2315278025550986,1.0136735966151624,9.779047034095127,-0.0003354151782695523,-0.0024159999251646418,-0.001090830782496456,43.79956566060861,-30.461880653400808,-44.1875
1772310578.4897492,88.77751794169794,1.2187050727046056,-5.950469393468993,-0.2315278025550986,1.0136735966151624,9.779047034095127,-0.0003354151782695523,-0.0024159999251646418,-0.001090830782496456,43.79956566060861,-30.461880653400808,-44.1875
1772310578.5229688,88.77751794169794,1.2187050727046056,-5.950469393468993,-0.22946220422025873,1.0127949818228403,9.779365811835634,-0.0003354151782695523,-0.0024159999251646418,0.0,43.44428037405118,-30.5818696743811,-45.375
1772310578.5488133,88.77751794169794,1.2187050727046056,-5.950469393468993,-0.22915790941288403,1.0153795240839913,9.77957795486096,0.0003490339137251075,-0.0010334830057197673,0.002181661564992912,43.44428037405118,-30.5818696743811,-45.375
1772310578.5832117,88.77751794169794,1.2187050727046056,-5.950469393468993,-0.2321246552084427,1.0160291702773425,9.773028910259884,0.0,0.0,0.003272492347489368,43.97564771175951,-30.006604516026474,-43.375
1772310578.6423502,88.77751794169794,1.2187050727046056,-5.950469393468993,-0.23409899139466497,1.0164615025619943,9.775360817650126,0.0013825169194448747,-0.0006844490919946597,-0.001090830782496456,43.97564771175951,-30.006604516026474,-43.375
1772310578.6784773,88.77751794169794,1.2187050727046056,-5.950469393468993,-0.23224363948114482,1.017819552678178,9.773567564261901,-0.0003490339137251075,0.0010334830057197673,0.0,43.679576639628316,-30.106595366843383,-45.0
1772310578.7145762,88.77751794169794,1.2187050727046056,-5.950469393468993,-0.2246704223269943,1.020863995480516,9.775719285871311,-0.0003490339137251075,0.0010334830057197673,0.0,43.679576639628316,-30.106595366843383,-45.0
1772310578.7684994,88.77751794169794,1.2187050727046056,-5.950469393468993,-0.22489869428041165,1.017580111945715,9.773806120858747,-0.0003354151782695523,-0.0024159999251646418,-0.001090830782496456,44.38702602848753,-29.076054071114424,-44.1875
1772310578.8314135,88.77751794169794,1.2187050727046056,-5.950469393468993,-0.21978244334432034,1.0207046503477903,9.772532930914341,0.0013825169194448747,-0.0006844490919946597,0.0,44.38702602848753,-29.076054071114424,-44.1875
1772310578.860474,88.77751794169794,1.2187050727046056,-5.950469393468993,-0.22378647449017688,1.0238125707212296,9.771685637228801,0.0010334830057197673,0.0003490339137251075,0.001090830782496456,44.51013623372346,-30.221902611440225,-45.0
1772310578.91417,88.77751794169794,1.2187050727046056,-5.950469393468993,-0.2264511124897858,1.025880857012008,9.771121772745966,0.0003354151782695523,0.0024159999251646418,-0.001090830782496456,44.51013623372346,-30.221902611440225,-45.0
1772310578.9571881,88.77751794169794,1.2187050727046056,-5.950469393468993,-0.22822439931256877,1.0272572784342493,9.770746527231417,-0.0013825169194448747,0.0006844490919946597,0.0,43.97564771175951,-30.006604516026474,-43.75
1772310578.982001,88.77751794169794,1.2187050727046056,-5.950469393468993,-0.22822439931256877,1.0272572784342493,9.770746527231417,-0.0013825169194448747,0.0006844490919946597,0.0,43.97564771175951,-30.006604516026474,-43.75
1772310579.0458052,88.77751794169794,1.2187050727046056,-5.950469393468993,-0.22840721129658498,1.0235045032222063,9.770330618532698,0.0,0.0,-0.001090830782496456,44.63012525470375,-30.57718789799765,-44.1875
1772310579.1104906,88.77751794169794,1.2187050727046056,-5.950469393468993,-0.2284558234072223,1.0225065909420767,9.763529799525621,0.0003354151782695523,0.0024159999251646418,0.001090830782496456,44.63012525470375,-30.57718789799765,-44.1875
1772310579.1481795,88.77751794169794,1.2187050727046056,-5.950469393468993,-0.22848817422381854,1.0218424914670607,9.759003930446537,0.0013825169194448747,-0.0006844490919946597,0.001090830782496456,43.735669669798924,-29.296033942911627,-44.1875
1772310579.1855562,88.77751794169794,1.2187050727046056,-5.950469393468993,-0.23065037895131285,1.0277390418662566,9.762682238546317,0.0003354151782695523,0.0024159999251646418,0.0,43.735669669798924,-29.296033942911627,-44.1875
1772310579.203001,88.77751794169794,1.2187050727046056,-5.950469393468993,-0.23208930204405095,1.0316631302881378,9.765130111497326,-0.0010334830057197673,-0.0003490339137251075,0.0,44.390147212743166,-29.8666173248828,-45.0
1772310579.2271922,88.77751794169794,1.2187050727046056,-5.950469393468993,-0.23304688928844403,1.0342745672979599,9.76341403189437,-0.000698067827450215,0.0020669660114395346,0.0,44.390147212743166,-29.8666173248828,-45.0
1772310579.2798493,88.77751794169794,1.2187050727046056,-5.950469393468993,-0.2283742266915345,1.0307442860852079,9.762272000088469,-0.0010334830057197673,-0.0003490339137251075,0.0,44.390147212743166,-29.8666173248828,-45.0
1772310579.3617146,88.77751794169794,1.2187050727046056,-5.950469393468993,-0.22526462193035252,1.0283949233739462,9.76485710238629,0.0,0.0,0.001090830782496456,43.57958578881141,-29.810524294712195,-44.1875
1772310579.3912654,88.77751794169794,1.2187050727046056,-5.950469393468993,-0.22709639875815452,1.0240083381593192,9.774400740676981,0.0,0.0,-0.002181661564992912,43.57958578881141,-29.810524294712195,-44.1875
1772310579.4352539,88.77751794169794,1.2187050727046056,-5.950469393468993,-0.22758349230563227,1.02284188746452,9.776273755468356,-0.0003490339137251075,0.0010334830057197673,-0.001090830782496456,43.679576639628316,-30.106595366843383,-44.1875
1772310579.4792345,88.77751794169794,1.2187050727046056,-5.950469393468993,-0.22473839702961648,1.0231359653674554,9.77752022588907,-0.0017315508331699823,0.001717932097714427,-0.001090830782496456,43.679576639628316,-30.106595366843383,-44.1875
1772310579.6456609,88.77751794169794,1.2187050727046056,-5.950469393468993,-0.2198023595819146,1.0181835593344448,9.772211545679005,-0.0013688981839893196,-0.0027650338388897494,0.0,44.52701321963121,-29.490553572098086,-44.1875
1772310579.742541,88.77751794169794,1.2187050727046056,-5.950469393468993,-0.2281730130241138,1.012424989288432,9.765408192955942,1.3618735455555247e-05,-0.0034494829308844093,-0.001090830782496456,44.390147212743166,-29.8666173248828,-43.75
1772310579.8027308,88.77751794169794,1.2187050727046056,-5.950469393468993,-0.23146921766372971,1.0140629603752143,9.766944203706025,0.0003490339137251075,-0.0010334830057197673,0.0,44.390147212743166,-29.8666173248828,-43.75
1772310579.837608,88.77751794169794,1.2187050727046056,-5.950469393468993,-0.2315638922499207,1.0193926002370184,9.77131151340916,-0.0006844490919946598,-0.0013825169194448747,0.001090830782496456,43.8756568609426,-29.710533443895287,-45.0
1772310579.857719,88.77751794169794,1.2187050727046056,-5.950469393468993,-0.2273873087285596,1.0208405032486159,9.77087279752323,0.0,0.0,0.001090830782496456,43.8756568609426,-29.710533443895287,-45.0
1772310579.9005048,88.77751794169794,1.2187050727046056,-5.950469393468993,-0.2273873087285596,1.0208405032486159,9.77087279752323,0.0,0.0,0.001090830782496456,43.8756568609426,-29.710533443895287,-45.0
1772310579.9480677,88.77751794169794,1.2187050727046056,-5.950469393468993,-0.22567817686080466,1.0249733171193685,9.770580837001923,-0.0003490339137251075,0.0010334830057197673,-0.002181661564992912,44.15016917078258,-29.156046751767953,-45.0
1772310579.9723501,88.77751794169794,1.2187050727046056,-5.950469393468993,-0.22567817686080466,1.0249733171193685,9.770580837001923,-0.0003490339137251075,0.0010334830057197673,-0.002181661564992912,44.15016917078258,-29.156046751767953,-45.0
1772310580.001122,88.77751794169794,1.2187050727046056,-5.950469393468993,-0.2266396814755226,1.0234840701829118,9.770386540536405,0.0003490339137251075,-0.0010334830057197673,-0.001090830782496456,44.15016917078258,-29.156046751767953,-45.0
1772310580.0607777,88.77751794169794,1.2187050727046056,-5.950469393468993,-0.2266396814755226,1.0234840701829118,9.770386540536405,0.0003490339137251075,-0.0010334830057197673,-0.001090830782496456,44.15016917078258,-29.156046751767953,-45.0
1772310580.1024282,88.77751794169794,1.2187050727046056,-5.950469393468993,-0.2272795520559071,1.0224929929826783,9.770257238409037,0.0020669660114395346,0.000698067827450215,0.0,43.679576639628316,-30.106595366843383,-44.5625
1772310580.1406198,88.77751794169794,1.2187050727046056,-5.950469393468993,-0.2266350409691143,1.0186641915863095,9.766826077580353,-0.0006844490919946598,-0.0013825169194448747,0.0,43.679576639628316,-30.106595366843383,-44.5625
1772310580.2443445,88.77751794169794,1.2187050727046056,-5.950469393468993,-0.22410721326005942,1.020355755428427,9.77123290179208,-0.0006844490919946598,-0.0013825169194448747,-0.001090830782496456,44.63012525470375,-30.57718789799765,-43.75
1772310580.339159,88.77751794169794,1.2187050727046056,-5.950469393468993,-0.22341456036063576,1.0215183263956613,9.773891133559308,0.0010198642702642122,0.003798516844609517,0.001090830782496456,42.72902802455289,-29.63600283568912,-44.1875
1772310580.3878407,88.77751794169794,1.2187050727046056,-5.950469393468993,-0.22341456036063576,1.0215183263956613,9.773891133559308,0.0010198642702642122,0.003798516844609517,0.001090830782496456,42.72902802455289,-29.63600283568912,-44.1875
1772310580.4456954,88.77751794169794,1.2187050727046056,-5.950469393468993,-0.22196401939024252,1.0222551502612758,9.779279729331549,0.0017315508331699823,-0.001717932097714427,0.0,42.72902802455289,-29.63600283568912,-44.1875
1772310580.4972537,88.77751794169794,1.2187050727046056,-5.950469393468993,-0.21885802495761833,1.0164069971316385,9.782865779623416,-0.0006844490919946598,-0.0013825169194448747,0.003272492347489368,42.869015215696564,-30.050502336672782,-44.5625
1772310580.519127,88.77751794169794,1.2187050727046056,-5.950469393468993,-0.22210094657004079,1.0177832799231417,9.778562032619208,0.0006844490919946598,0.0013825169194448747,0.001090830782496456,42.869015215696564,-30.050502336672782,-44.5625
1772310580.5428042,88.77751794169794,1.2187050727046056,-5.950469393468993,-0.22210094657004079,1.0177832799231417,9.778562032619208,0.0006844490919946598,0.0013825169194448747,0.001090830782496456,42.869015215696564,-30.050502336672782,-44.5625
1772310580.5687578,88.77751794169794,1.2187050727046056,-5.950469393468993,-0.2242590746772999,1.018699180746801,9.775697937063912,-0.0020669660114395346,-0.000698067827450215,-0.001090830782496456,43.735669669798924,-29.296033942911627,-45.0
1772310580.599519,88.77751794169794,1.2187050727046056,-5.950469393468993,-0.22886453541548113,1.0182383647034476,9.777137025173225,-0.0010334830057197673,-0.0003490339137251075,0.001090830782496456,43.735669669798924,-29.296033942911627,-45.0
1772310580.6711876,88.77751794169794,1.2187050727046056,-5.950469393468993,-0.2298305053099184,1.0221712851751352,9.778094722234306,-0.0006844490919946598,-0.0013825169194448747,-0.002181661564992912,43.679576639628316,-30.106595366843383,-45.0
1772310580.7043502,88.77751794169794,1.2187050727046056,-5.950469393468993,-0.23047334748407572,1.0247885998154431,9.775386947222959,0.0003490339137251075,-0.0010334830057197673,-0.001090830782496456,43.679576639628316,-30.106595366843383,-45.0
1772310580.7231724,88.77751794169794,1.2187050727046056,-5.950469393468993,-0.23047334748407572,1.0247885998154431,9.775386947222959,0.0003490339137251075,-0.0010334830057197673,-0.001090830782496456,43.679576639628316,-30.106595366843383,-45.0
1772310580.744315,88.77751794169794,1.2187050727046056,-5.950469393468993,-0.22412486362095732,1.02419382190262,9.775730858015857,0.000698067827450215,-0.0020669660114395346,-0.002181661564992912,43.8756568609426,-29.710533443895287,-43.75
1772310580.7841458,88.77751794169794,1.2187050727046056,-5.950469393468993,-0.22412486362095732,1.02419382190262,9.775730858015857,0.000698067827450215,-0.0020669660114395346,-0.002181661564992912,43.8756568609426,-29.710533443895287,-43.75
1772310580.803993,88.77751794169794,1.2187050727046056,-5.950469393468993,-0.22136638046516327,1.020866412043243,9.777158933698994,-0.0010334830057197673,-0.0003490339137251075,0.0,43.679576639628316,-30.106595366843383,-44.1875
1772310580.8317027,88.77751794169794,1.2187050727046056,-5.950469393468993,-0.22136638046516327,1.020866412043243,9.777158933698994,-0.0010334830057197673,-0.0003490339137251075,0.0,43.679576639628316,-30.106595366843383,-44.1875
1772310580.854385,88.77751794169794,1.2187050727046056,-5.950469393468993,-0.22269989132992904,1.017581720141215,9.77476419040615,0.0017315508331699823,-0.001717932097714427,0.001090830782496456,43.679576639628316,-30.106595366843383,-44.1875
1772310580.8823442,88.77751794169794,1.2187050727046056,-5.950469393468993,-0.22358732791413832,1.0153957943728282,9.7731705154958,0.0003490339137251075,-0.0010334830057197673,-0.001090830782496456,43.679576639628316,-30.106595366843383,-44.1875
1772310580.907322,88.84304554155085,1.2243937500750681,-5.965034533895472,-0.2401076856809213,1.029745575305735,9.778800166060115,0.006871728390857709,0.006926203332679929,0.05235987755982989,43.22430050225398,-29.930513315692487,-45.0
1772310580.9335997,88.83729691697863,1.2207275752553768,-5.984767296750156,-0.25110179923022724,1.0392951942190283,9.78254663562335,0.010321211321742116,0.006939822068135484,-0.016362461737446838,43.22430050225398,-29.930513315692487,-45.0
1772310580.9838114,88.70768058369903,1.213336342857981,-5.960824229852088,-0.29525363974289837,0.9979027858696448,9.801765427803472,-0.009958558672561455,-0.011422788004739661,-0.06763150851478027,43.32429135307089,-30.226584387823674,-44.5625
1772310581.0334263,88.7170988811667,1.2127192517770662,-5.995720955911432,-0.1693429174528353,1.0228031531972075,9.761033531994258,0.03618552393564741,0.008766704049494353,-0.004363323129985824,43.32429135307089,-30.226584387823674,-44.5625
1772310581.0797875,88.71160841831262,1.2033078274100795,-6.019456383852113,-0.3070796729400515,1.1516867846726988,9.733926910338315,-0.0013688981839893196,-0.0027650338388897494,0.003272492347489368,45.041503571431775,-29.6466374530856,-43.375
1772310581.1403866,88.67378448539317,1.186896209376991,-5.986880442889173,-0.39874194509642036,1.23745740169514,9.715887756427088,-0.0068989658617688195,-2.72374709111104e-05,-0.009817477042468103,45.041503571431775,-29.6466374530856,-43.375
1772310581.2066107,88.67378448539317,1.186896209376991,-5.986880442889173,-0.39874194509642036,1.23745740169514,9.715887756427088,-0.0068989658617688195,-2.72374709111104e-05,-0.009817477042468103,45.041503571431775,-29.6466374530856,-43.375
1772310581.240176,88.67378448539317,1.186896209376991,-5.986880442889173,-0.39874194509642036,1.23745740169514,9.715887756427088,-0.0068989658617688195,-2.72374709111104e-05,-0.009817477042468103,45.041503571431775,-29.6466374530856,-43.375
1772310581.335351,88.74387277381018,1.186562671830961,-5.980552108101048,-0.38374817875648326,1.0695199972653746,9.717263347838998,0.0013416607130782093,0.009663999700658567,0.019634954084936207,43.57958578881141,-29.810524294712195,-44.1875
1772310581.395575,88.79000588734485,1.1997582505152484,-5.9465107434234925,-0.3040464817538414,0.9813069624258429,9.72821412367922,0.0003490339137251075,-0.0010334830057197673,0.020725784867432664,43.57958578881141,-29.810524294712195,-44.1875
1772310581.4356534,88.79000588734485,1.1997582505152484,-5.9465107434234925,-0.3040464817538414,0.9813069624258429,9.72821412367922,0.0003490339137251075,-0.0010334830057197673,0.020725784867432664,43.57958578881141,-29.810524294712195,-44.1875
1772310581.470067,88.82941408649307,1.1870033892314678,-5.973943232072884,-0.25100589272487545,0.9226021731443003,9.735501742672705,0.0065635506834992655,-0.0023887624542535315,-0.001090830782496456,41.67848855866055,-28.869339232403668,-44.875
1772310581.4949608,88.82941408649307,1.1870033892314678,-5.973943232072884,-0.25100589272487545,0.9226021731443003,9.735501742672705,0.0065635506834992655,-0.0023887624542535315,-0.001090830782496456,41.67848855866055,-28.869339232403668,-44.875
1772310581.5610504,88.83990658211333,1.1686719216555232,-5.995700505449176,-0.20426836003574061,0.9332977518133462,9.737006459997511,-0.002429618660620197,0.0037848981091539616,0.001090830782496456,41.67848855866055,-28.869339232403668,-44.875
1772310581.6103063,88.81175996533113,1.1459275162684115,-6.0020451469060045,-0.19534980825826637,0.9329231752686428,9.738007832568377,0.010321211321742116,0.006939822068135484,-0.02945243112740431,41.778479409477455,-29.165410304534856,-45.25
1772310581.6400342,88.85745417957622,1.1288370905543323,-5.998336544251419,-0.18328492469565122,0.9877050222940106,9.742019346535542,0.008965931873208353,0.0007253052983613256,-0.002181661564992912,41.778479409477455,-29.165410304534856,-45.25
1772310581.669199,88.85745417957622,1.1288370905543323,-5.998336544251419,-0.18328492469565122,0.9877050222940106,9.742019346535542,0.008965931873208353,0.0007253052983613256,-0.002181661564992912,41.778479409477455,-29.165410304534856,-45.25
1772310581.689381,88.90286694135145,1.1106591823572536,-6.029552637817936,-0.1974406335930068,1.0166693648645533,9.744688964269145,-0.006926203332679929,0.006871728390857708,0.018544123302439753,41.1878978573429,-29.760673633052864,-45.6875
1772310581.7548172,88.90286694135145,1.1106591823572536,-6.029552637817936,-0.1974406335930068,1.0166693648645533,9.744688964269145,-0.006926203332679929,0.006871728390857708,0.018544123302439753,41.1878978573429,-29.760673633052864,-45.6875
1772310581.949603,89.21086004308738,1.0868281397449273,-6.05466289232923,-0.22793881511742747,1.043771192368674,9.79221784247207,0.0034631016663399647,-0.003435864195428854,0.0272707695624114,40.77183776423142,-29.505379197312347,-44.875
1772310582.0366359,89.39137337419348,1.0856940059066844,-6.08623662081757,-0.2844677155819969,0.9882458838274274,9.81883845873774,-0.0027786525743453048,0.004818381114873729,0.04036073895236887,39.38601118194504,-28.917918829433425,-46.5
1772310582.1929033,89.53182121436059,1.0760734556197937,-6.0972403761076155,-0.2614424504300749,0.9258191885301247,9.758154594004713,-0.02174399932648178,0.0030187366044259704,0.04254240051736178,38.93619711701806,-30.12532247237719,-45.25
1772310582.2904234,89.67743549643357,1.0781191183136098,-6.099890404892237,-0.2565550535441186,0.9034401053819152,9.655590632125339,-0.011381931798372994,-0.000389890120091773,0.04145156973486533,38.5993494084962,-29.90924408089953,-46.5
1772310582.3579562,89.67743549643357,1.0781191183136098,-6.099890404892237,-0.2565550535441186,0.9034401053819152,9.655590632125339,-0.011381931798372994,-0.000389890120091773,0.04145156973486533,38.5993494084962,-29.90924408089953,-46.5
1772310582.4487936,89.79787566486715,1.0788377275023222,-6.10281646387136,-0.2144250542740313,0.9501392028980548,9.583473157374254,0.010670245235467224,0.005906339062415717,0.015271630954950384,39.176175158978644,-30.835893045492035,-46.0625
1772310582.5374036,89.9039591270052,1.0592752162405141,-6.102788084550062,-0.29039053019388317,1.0099033083618771,9.78207939843542,-0.0017179320977144272,-0.0017315508331699823,0.009817477042468103,35.89237253079703,-30.09781086907296,-45.6875
1772310582.5959494,89.94375629657853,1.0768299282031428,-6.099779518819522,-0.31531192717384926,1.043952027274391,9.821525156918202,0.005221889970421057,-0.0120527621549121,0.007635815477475192,35.89237253079703,-30.09781086907296,-45.6875
1772310582.6176078,90.03955373688053,1.0648736067880462,-6.111132957689885,-0.3276154872329079,1.053934066998874,9.827705198306584,0.0013688981839893196,0.0027650338388897494,0.06435901616729091,35.39710005309593,-29.80330038906959,-46.0625
1772310582.6602364,90.04875398391886,1.0719505196214891,-6.132224774573011,-0.30411086310573177,1.0712803810309863,9.81174727657105,0.007610652424674589,-0.005489211471412833,-0.003272492347489368,35.39710005309593,-29.80330038906959,-46.0625
1772310582.6911094,90.04875398391886,1.0719505196214891,-6.132224774573011,-0.30411086310573177,1.0712803810309863,9.81174727657105,0.007610652424674589,-0.005489211471412833,-0.003272492347489368,35.39710005309593,-29.80330038906959,-46.0625
1772310582.7503433,90.09342526973748,1.0759624321408945,-6.122181741629709,-0.3264998054010015,1.0699801055257423,9.801127457917717,0.0010607204766308778,-0.006549931948043711,-0.011999138607461015,35.39710005309593,-29.80330038906959,-46.5
1772310582.7759974,90.16892641953733,1.0783821337685466,-6.131076300553578,-0.283240785115363,1.0746335271130185,9.794060087235072,0.006885347126313264,0.0034767204017955196,0.01090830782496456,35.39710005309593,-29.80330038906959,-46.5
1772310582.8036652,90.17327044768139,1.072984372110637,-6.135420328697623,-0.26079089153153173,1.0755896515767938,9.81946283635935,-0.014455143344621184,-0.008335957723035914,0.003272492347489368,35.04649654292196,-31.109134290702446,-45.6875
1772310582.8391876,90.17327044768139,1.072984372110637,-6.135420328697623,-0.26079089153153173,1.0755896515767938,9.81946283635935,-0.014455143344621184,-0.008335957723035914,0.003272492347489368,35.04649654292196,-31.109134290702446,-45.6875
1772310582.8717546,90.23904921253867,1.0812245098345756,-6.105321049840612,-0.24585073813323527,1.076225941726826,9.779501183109826,-0.014119728166351634,-0.0059199577978712725,0.04908738521234052,35.04649654292196,-31.109134290702446,-45.6875
1772310582.8970313,90.37464048424818,1.088423832807755,-6.103871518919034,-0.23672799370947228,1.0163500988111465,9.742871814151226,0.00720714356912726,0.00934220325784457,0.04254240051736178,34.335925969807114,-31.34911233266303,-46.0625
1772310582.9968977,90.54943759510081,1.0272620500221146,-6.040851297911816,-0.25601091392855724,0.9679406917260251,9.715150266578819,-0.0006299741501724382,-0.015180448642982512,-0.026179938779914945,34.015955247193,-30.401684901843232,-45.25
1772310583.0727696,90.54943759510081,1.0272620500221146,-6.040851297911816,-0.25601091392855724,0.9679406917260251,9.715150266578819,-0.0006299741501724382,-0.015180448642982512,-0.026179938779914945,34.015955247193,-30.401684901843232,-45.25
1772310583.0903294,90.55650952259602,1.0703214420709681,-6.087658776365202,-0.26884348193002544,0.9357247720793868,9.700046998046679,0.03426836401421898,-0.02987567601768436,-0.018544123302439753,34.015955247193,-30.401684901843232,-45.25
1772310583.1506248,90.6209498426496,1.0665756385827225,-6.101191849947341,-0.2805944260164731,0.923793189201964,9.803729739601962,0.0006844490919946598,0.0013825169194448747,0.008726646259971648,33.719884175061814,-30.50167575266014,-47.25
1772310583.1990569,90.6209498426496,1.0665756385827225,-6.101191849947341,-0.2805944260164731,0.923793189201964,9.803729739601962,0.0006844490919946598,0.0013825169194448747,0.008726646259971648,33.719884175061814,-30.50167575266014,-47.25
1772310583.2495377,90.6866983657531,1.0715830925748315,-6.090578383468608,-0.3141026554845393,0.991914868257653,9.872729445894892,-0.00960952475883635,-0.012456271010459428,0.013089969389957472,33.719884175061814,-30.50167575266014,-47.25
1772310583.2794733,90.76656959880856,1.0717334922226707,-6.084319314069994,-0.2983710007960383,1.050093138422789,9.918647979655614,-0.012429033539548317,0.002710558897067529,0.04908738521234052,33.070088408501014,-31.116937251341533,-47.6875
1772310583.353101,90.82745080252315,1.0595180334598298,-6.086302065208222,-0.27291703099191567,1.0444406190544349,9.885649128490673,0.0016906946268033167,0.0086305166949388,0.019634954084936207,32.324203271442855,-32.42433174510221,-46.875
1772310583.4406235,90.93248035286628,1.0594568817308196,-6.089521111074293,-0.2559776984267455,1.0406789305575737,9.826892532881214,0.004133932022879069,0.00139613565490043,0.001090830782496456,32.324203271442855,-32.42433174510221,-46.875
1772310583.4926536,90.93248035286628,1.0594568817308196,-6.089521111074293,-0.2559776984267455,1.0406789305575737,9.826892532881214,0.004133932022879069,0.00139613565490043,0.001090830782496456,32.324203271442855,-32.42433174510221,-46.875
1772310583.5245605,91.04751741794801,1.0512626666920841,-6.116375523478742,-0.23836626064802632,1.040316244504158,9.784445563149978,0.002415999925164642,-0.0003354151782695522,0.030543261909900768,30.58309140259905,-31.956860398203574,-47.25
1772310583.6172516,91.13840888908337,1.0575711857626953,-6.105460048089189,-0.2564066900251002,1.07592344961472,9.759542690664881,-0.015221304849349178,0.010978422942825666,0.032724923474893676,29.51567495079896,-31.92154583426026,-45.25
1772310583.7184193,91.22856801116478,1.0454758857432758,-6.117225597548353,-0.25567586292592753,1.036607586292061,9.80993868458432,2.7237470911110494e-05,-0.006898965861768819,-0.020725784867432664,29.02040247309786,-31.62703535425689,-48.0
1772310583.7377985,91.22856801116478,1.0454758857432758,-6.117225597548353,-0.25567586292592753,1.036607586292061,9.80993868458432,2.7237470911110494e-05,-0.006898965861768819,-0.020725784867432664,29.02040247309786,-31.62703535425689,-48.0
1772310583.7590983,91.25428019768741,1.0400459249305631,-6.09590764671761,-0.26677217348994675,1.0491299492478685,9.853445647470956,-0.02103231276357601,-0.002497712337897974,0.018544123302439753,29.02040247309786,-31.62703535425689,-48.0
1772310583.7808495,91.2640442557075,1.0405793496721023,-6.095898567402481,-0.30267989953242824,1.0478304016190556,9.845602816486878,-0.005824626649682385,-0.010026652349839231,-0.00545415391248228,29.02040247309786,-31.62703535425689,-48.0
1772310583.802493,91.2640442557075,1.0405793496721023,-6.095898567402481,-0.30267989953242824,1.0478304016190556,9.845602816486878,-0.005824626649682385,-0.010026652349839231,-0.00545415391248228,29.02040247309786,-31.62703535425689,-48.0
1772310583.8888242,91.33416416277505,1.0401683722431727,-6.089669923843661,-0.3468371354517621,0.98611415030595,9.891503587888536,-0.011381931798372994,-0.000389890120091773,0.018544123302439753,29.138830901950335,-31.587039013930127,-46.0625
1772310583.9515889,91.39987434521962,1.0436172919298035,-6.08880677655763,-0.31677736675556895,0.9944127153232699,9.901035956065602,0.005167415028598836,0.0017451695686255375,0.02399827721492203,27.007119182605788,-32.30697313981188,-48.0625
1772310584.0436113,91.48512255209592,1.049610078603034,-6.078151503087791,-0.32212693120323727,0.9913726151595237,9.90737964060391,0.007220762304582816,0.005892720326960162,0.03490658503988659,26.436535800634616,-32.96145068275612,-47.6875
1772310584.0830307,91.52951797671601,1.0531916291021268,-6.10299058918209,-0.30362754096984496,1.0285760958788912,9.914946403507873,0.00791883013203303,0.003825754315520627,0.003272492347489368,26.436535800634616,-32.96145068275612,-47.6875
1772310584.1082158,91.52951797671601,1.0531916291021268,-6.10299058918209,-0.30362754096984496,1.0285760958788912,9.914946403507873,0.00791883013203303,0.003825754315520627,0.003272492347489368,26.436535800634616,-32.96145068275612,-47.6875
1772310584.1504722,91.53927396094825,1.0522507703400186,-6.112746573414347,-0.3176572202768805,1.0267849656520067,9.91998199969418,-0.004469347201148621,-0.003812135580065072,0.015271630954950384,26.531844875068074,-32.07167687423475,-46.875
1772310584.1822953,91.60966694827358,1.0476863952951536,-6.100893329323236,-0.34917856926862173,1.0181006238227392,9.926678244412193,0.004106694551967959,0.008295101516669248,0.04581489286485115,26.531844875068074,-32.07167687423475,-46.875
1772310584.2138762,91.63481087011955,1.0475485921306118,-6.110366408544502,-0.36694466147543786,1.002813539573804,9.887648068274922,0.0027650338388897494,-0.0013688981839893193,0.013089969389957472,25.58597803637609,-32.78692922373305,-48.0625
1772310584.24209,91.63481087011955,1.0475485921306118,-6.110366408544502,-0.36694466147543786,1.002813539573804,9.887648068274922,0.0027650338388897494,-0.0013688981839893193,0.013089969389957472,25.58597803637609,-32.78692922373305,-48.0625
1772310584.2576451,91.61942420995223,1.0467521180231565,-6.1106505910018925,-0.3534137926534537,1.001202858255785,9.811497246441414,-0.016145837971424506,-0.016966474417974716,-0.020725784867432664,25.58597803637609,-32.78692922373305,-48.0625
1772310584.2744312,91.62840927033591,1.0641387957443609,-6.098187693821511,-0.34226847498169993,0.9937924666497909,9.754129501756992,-0.004777524908507064,-0.013127101366998533,0.02399827721492203,25.58597803637609,-32.78692922373305,-48.0625
1772310584.2929785,91.62840927033591,1.0641387957443609,-6.098187693821511,-0.34226847498169993,0.9937924666497909,9.754129501756992,-0.004777524908507064,-0.013127101366998533,0.02399827721492203,25.58597803637609,-32.78692922373305,-48.0625
1772310584.3160472,91.62840927033591,1.0641387957443609,-6.098187693821511,-0.34226847498169993,0.9937924666497909,9.754129501756992,-0.004777524908507064,-0.013127101366998533,0.02399827721492203,25.58597803637609,-32.78692922373305,-48.0625
1772310584.3655093,91.74779150029046,1.087357439049089,-6.0844903445677625,-0.3526925620214404,1.136657245594502,9.662688915768497,-0.006214516769774158,0.0013552794485337644,-0.017453292519943295,25.074608868831156,-33.421408596513906,-46.875
1772310584.3955648,91.74779150029046,1.087357439049089,-6.0844903445677625,-0.3526925620214404,1.136657245594502,9.662688915768497,-0.006214516769774158,0.0013552794485337644,-0.017453292519943295,25.074608868831156,-33.421408596513906,-46.875
1772310584.4169776,91.79222941075918,1.0953595843488828,-6.0799944590113215,-0.345333620203232,1.1780683167288961,9.718656342431206,-0.008616897959483246,-0.0017587883040810928,0.02399827721492203,23.038206223920067,-33.25156891387428,-47.25
1772310584.4483988,91.79782537518739,1.0941645398845201,-6.089490643034079,-0.2944953264686505,1.0905053257424715,9.75590203967812,0.013408041603445862,0.011436406740195216,0.01090830782496456,23.038206223920067,-33.25156891387428,-47.25
1772310584.4646106,91.79782537518739,1.0941645398845201,-6.089490643034079,-0.2944953264686505,1.0905053257424715,9.75590203967812,0.013408041603445862,0.011436406740195216,0.01090830782496456,23.038206223920067,-33.25156891387428,-47.25
1772310584.486218,91.81762621053481,1.0896210516660454,-6.0936176838484,-0.3018632675679588,1.018318741850899,9.790723970256199,0.0006572116210835496,0.008281482781213694,0.013089969389957472,23.038206223920067,-33.25156891387428,-47.25
1772310584.5127473,91.7578060292025,1.0808211596781865,-6.098402240600235,-0.28697304858985084,1.0475787799942593,9.757030677045028,0.007905211396577475,0.0072752372464050365,-0.016362461737446838,23.298182436044033,-34.021353701415364,-48.5
1772310584.5352595,91.7578060292025,1.0808211596781865,-6.098402240600235,-0.28697304858985084,1.0475787799942593,9.757030677045028,0.007905211396577475,0.0072752372464050365,-0.016362461737446838,23.298182436044033,-34.021353701415364,-48.5
1772310584.5610614,91.75834010300935,1.0710523612463296,-6.09694547899076,-0.31826403187328556,1.0531366169898162,9.768059283864936,0.007220762304582816,0.005892720326960162,-0.004363323129985824,23.298182436044033,-34.021353701415364,-48.5
1772310584.600204,91.7868135624596,1.0836729164781365,-6.123512406736902,-0.26808516670036636,1.0243230287481893,9.775398698505974,0.004804762379418175,0.006228135505229714,0.002181661564992912,22.86212417276917,-33.706845051248614,-48.0625
1772310584.6178904,91.78264072784435,1.0819429481280796,-6.1330221083425265,-0.25687644659713627,0.9976555429707454,9.810389002328826,-0.0034494829308844097,-1.36187354555552e-05,-0.006544984694978736,22.86212417276917,-33.706845051248614,-48.0625
1772310584.6365542,91.78264072784435,1.0819429481280796,-6.1330221083425265,-0.25687644659713627,0.9976555429707454,9.810389002328826,-0.0034494829308844097,-1.36187354555552e-05,-0.006544984694978736,22.86212417276917,-33.706845051248614,-48.0625
1772310584.6546872,91.8181015539344,1.074046095440875,-6.131250233387859,-0.29009000536624874,1.1003401515266833,9.833674658655628,-0.013770694252626527,-0.006953440803591039,0.038179077387375956,22.86212417276917,-33.706845051248614,-48.0625
1772310584.6889536,91.88822516117216,1.073626837306635,-6.125003551187216,-0.31219325770733136,1.1686756114584236,9.795649215506181,0.004831999850329284,-0.0006708303565391044,0.03381575425739013,21.872359513430887,-33.31546490468397,-48.5
1772310584.7070272,91.97791073329269,1.0757091498499218,-6.108954087029808,-0.33299064937229533,1.14854288357209,9.770343707862256,-1.3618735455555247e-05,0.0034494829308844093,0.037088246604879506,21.872359513430887,-33.31546490468397,-48.5
1772310584.788168,91.9935346838163,1.0694634260406766,-6.122605157082185,-0.30246157293384984,1.1501295074040636,9.753503175206266,0.006200898034318604,0.002094203482350645,0.014180800172453928,22.092339385228087,-33.96682126337258,-46.875
1772310584.8155081,91.9935346838163,1.0694634260406766,-6.122605157082185,-0.28308986288647886,1.1226203696844785,9.728915542015503,-0.005489211471412833,-0.007610652424674589,0.025089107997418487,22.092339385228087,-33.96682126337258,-46.875
1772310584.8546958,92.05495603467664,1.0489493174433346,-6.113514057831038,-0.25949482814397457,1.0726208399225896,9.71255274678891,-0.0017724070395366475,0.012066380890367654,0.04145156973486533,20.96570871900176,-33.95150486959265,-48.875
1772310584.9468274,92.04960173275663,1.041654883752794,-6.1277335833912225,-0.2309485423740552,1.0013157043093464,9.701663489350011,-0.004147550758334625,0.0020533472759839797,-0.001090830782496456,20.96570871900176,-33.95150486959265,-48.875
1772310584.9959865,92.06967477442244,1.0315242892679497,-6.1360529246091575,-0.23413606221177588,0.9463705684177774,9.664310804799525,-0.0010198642702642122,-0.003798516844609517,0.025089107997418487,20.515114358010877,-34.961267699094314,-49.6875
1772310585.0233867,92.06967477442244,1.0315242892679497,-6.1360529246091575,-0.23413606221177588,0.9463705684177774,9.664310804799525,-0.0010198642702642122,-0.003798516844609517,0.025089107997418487,20.515114358010877,-34.961267699094314,-49.6875
1772310585.0651016,92.03417696482404,1.0351255944211109,-6.167116114571297,-0.22674956928483683,0.9130162076899705,9.639453010488003,0.019704270785953354,-0.010615770293645002,-0.03381575425739013,20.515114358010877,-34.961267699094314,-49.6875
1772310585.1014705,92.06802235104786,1.0565527697784343,-6.169666414760937,-0.2421703591485936,0.9510350144409835,9.663051766541274,0.003168542694437077,-0.016200312913246723,-0.017453292519943295,19.09397321178118,-35.44122378301549,-47.25
1772310585.1180944,92.06802235104786,1.0565527697784343,-6.169666414760937,-0.2421703591485936,0.9510350144409835,9.663051766541274,0.003168542694437077,-0.016200312913246723,-0.017453292519943295,19.09397321178118,-35.44122378301549,-47.25
1772310585.1388798,92.11912579699555,1.0438661271992027,-6.1718072355593705,-0.2524327225414139,0.9763361056358838,9.749003820933057,-0.0042156444356124005,0.019300761930406026,0.02945243112740431,19.09397321178118,-35.44122378301549,-47.25
1772310585.1830294,92.12045955574155,1.0172955990434276,-6.182904804196718,-0.2244004542438461,1.0049474151067574,9.806203952983427,0.007583414953763478,0.0014097543903559852,-0.017453292519943295,18.258731841302588,-34.14007165776608,-48.0625
1772310585.210823,92.14614862800127,1.0088685293308315,-6.181185769109496,-0.2415520986204339,0.9836491878819659,9.7740226560419,-0.007583414953763478,-0.0014097543903559852,-0.001090830782496456,18.258731841302588,-34.14007165776608,-48.0625
1772310585.2741628,92.14613928322888,1.0074454429814668,-6.190960400913361,-0.2053858046565921,0.9749524331516645,9.752606362415957,-0.0013825169194448747,0.0006844490919946597,0.003272492347489368,18.952425428509688,-34.63144265514764,-49.6875
1772310585.3311675,92.15538299946434,1.0191821295962564,-6.182598801900477,-0.19082529179964294,0.9659538265971169,9.7784953987314,-0.004106694551967959,-0.008295101516669248,-0.002181661564992912,18.952425428509688,-34.63144265514764,-49.6875
1772310585.4077606,92.18080664636591,1.0163513233763304,-6.176704529258951,-0.21234228100109814,1.0941859799144549,9.815794933443756,-0.007261618510949481,0.0044557284656930665,0.016362461737446838,18.30106906982108,-34.85142252694484,-48.5
1772310585.4841835,92.21881644306531,1.0366430922456351,-6.189273021457269,-0.2393385993168314,1.1752416942592692,9.833927133717088,0.016871143269785827,0.008000542544766362,0.020725784867432664,18.30106906982108,-34.85142252694484,-48.5
1772310585.5214643,92.21881644306531,1.0366430922456351,-6.189273021457269,-0.2393385993168314,1.1752416942592692,9.833927133717088,0.016871143269785827,0.008000542544766362,0.020725784867432664,18.30106906982108,-34.85142252694484,-48.5
1772310585.6104243,92.21271921928728,1.0684482927043923,-6.208633623635895,-0.24820508251783638,1.1992026152925817,9.750325752642528,0.0027241776325230833,0.008979550608663909,0.02945243112740431,16.77993707277447,-35.03530753873482,-48.5
1772310585.7484846,92.26533593662316,1.1091729500894958,-6.188787019283207,-0.23842399836228415,0.9463702190423476,9.637612186961643,-0.013113482631542975,0.001328041977622654,0.037088246604879506,15.578775798341974,-36.166619981344596,-49.25
1772310585.8085155,92.3100755802846,1.114422225651964,-6.168877358383524,-0.2573484002792746,0.9742603113775096,9.65513649563319,-0.001006245534808657,-0.007247999775493927,-0.004363323129985824,15.718762989485649,-36.581119482328255,-48.5
1772310585.886797,92.44351467147082,1.0585559756149125,-6.153556286795836,-0.27311162894628166,0.9917505184635987,9.71697540290454,-0.015611194969440951,0.022360354741198664,0.03381575425739013,15.718762989485649,-36.581119482328255,-48.5
1772310585.9816115,92.52085440729444,1.0304347897169672,-6.133090073125156,-0.2849645592274271,1.0806059335672458,9.758128504907766,-0.020751372527128678,0.013716219310804304,0.05672320068981571,14.39293091768941,-36.171301757728045,-48.875
1772310586.0264175,92.44884173235504,1.0644046723226004,-6.149088845389764,-0.2416016255531896,1.0193484601331848,9.785515434580644,0.02629505894036373,-0.019903498609667353,0.001090830782496456,14.39293091768941,-36.171301757728045,-48.875
1772310586.1621535,92.43754240395587,1.1001896160907507,-6.104407935481357,-0.29084319381625545,1.145476845852013,9.828131596879139,-0.0044557284656930665,-0.007261618510949481,0.008726646259971648,13.286298421626466,-36.21519957837435,-48.5
1772310586.2207327,92.43754240395587,1.1001896160907507,-6.104407935481357,-0.29084319381625545,1.145476845852013,9.828131596879139,-0.0044557284656930665,-0.007261618510949481,0.008726646259971648,13.286298421626466,-36.21519957837435,-48.5
1772310586.2855725,92.43780024328176,1.0946017979423406,-6.10859790571477,-0.2986548161544071,1.1257790508966117,9.842137045423776,-0.004872856056695949,0.011019279149192332,0.031634092692397225,13.286298421626466,-36.21519957837435,-48.875
1772310586.3490436,92.43780024328176,1.0946017979423406,-6.10859790571477,-0.2986548161544071,1.1257790508966117,9.842137045423776,-0.004872856056695949,0.011019279149192332,0.031634092692397225,13.286298421626466,-36.21519957837435,-48.875
1772310586.4449267,92.46373974447371,1.080565786465948,-6.111076994903552,-0.24955847511773482,1.0250852353439657,9.818006397905926,0.004523822142970842,-0.009985796143472565,-0.006544984694978736,11.368324205567854,-36.00536355540796,-50.0625
1772310586.5238605,92.49304172183307,1.0793833325549915,-6.130581918531797,-0.17014689354377246,0.9195715935122153,9.729965323819146,0.0024023811897090873,0.003114067752614857,-0.002181661564992912,10.518546737373239,-36.02848290982698,-49.6875
1772310586.5949132,92.49383845569156,1.0640198144288362,-6.133380634799833,-0.1535433242456383,0.9090544179473137,9.716596476559722,-0.010724720177289445,0.007891592661121919,0.011999138607461015,11.148344333770652,-35.35400719671935,-49.25
1772310586.674622,92.45917401809668,1.0565622004965534,-6.137896940169965,-0.14895762405302418,0.9316489482196739,9.690974099511788,0.005502830206868389,0.004161169493790179,-0.028361600344907856,11.148344333770652,-35.35400719671935,-49.25
1772310586.7049203,92.47452498698816,1.0559647111733863,-6.147383833604129,-0.14894985387120727,0.9138807491615877,9.704028699172968,-0.010013033614383675,0.0023751437187979757,0.01090830782496456,9.727203187540955,-35.83396328064052,-48.5
1772310586.7302747,92.4848271883329,1.0453307753111463,-6.155752739402385,-0.13610062917941584,0.86402520408417,9.719406612832689,0.007247999775493927,-0.001006245534808657,-0.003272492347489368,9.727203187540955,-35.83396328064052,-48.5
1772310586.761544,92.4848271883329,1.0453307753111463,-6.155752739402385,-0.13610062917941584,0.86402520408417,9.719406612832689,0.007247999775493927,-0.001006245534808657,-0.003272492347489368,9.727203187540955,-35.83396328064052,-48.5
1772310586.807075,92.47894887678977,1.047865210962434,-6.171395637954054,-0.12754961368227333,0.8308468957580784,9.79319756502975,0.011032897884647886,0.0014233731258115406,-0.003272492347489368,8.541358306888391,-35.83864505702397,-48.5
1772310586.8647661,92.52980704298544,1.0435527035103742,-6.149832106742619,-0.10918200602734358,0.8130484534339164,9.842304619417948,-6.809367727777604e-05,0.017247414654422043,0.022907446432425576,8.541358306888391,-35.83864505702397,-48.5
1772310586.8825314,92.5498909941456,1.0334611844800303,-6.15819375570307,-0.15796782349491598,0.9818510725570522,9.854914145307637,0.014160584372718298,-0.004428490994781956,-0.015271630954950384,8.306062041311257,-36.313919364561684,-48.5
1772310586.911169,92.52053839156864,1.0304544088485597,-6.168013932562827,-0.16046478136025072,1.0054483133959071,9.75291695758805,2.7237470911110494e-05,-0.006898965861768819,-0.017453292519943295,8.306062041311257,-36.313919364561684,-48.5
1772310586.9460514,92.52053839156864,1.0304544088485597,-6.168013932562827,-0.16046478136025072,1.0054483133959071,9.75291695758805,2.7237470911110494e-05,-0.006898965861768819,-0.017453292519943295,8.306062041311257,-36.313919364561684,-48.5
1772310586.9766397,92.53089570218918,1.0253868017098382,-6.1372709851277,-0.17163423069879646,1.0179410001450653,9.685038968543909,-0.014427905873710076,-0.015234923584804732,-0.007635815477475192,8.086082169514055,-35.662563005873075,-48.875
1772310587.0044956,92.55988245466355,1.022864691685925,-6.201496498535549,-0.20442137918804082,1.017692041142448,9.743565388008752,0.026816083206891723,0.02287281348039043,0.016362461737446838,8.086082169514055,-35.662563005873075,-48.875
1772310587.0363064,92.55988245466355,1.022864691685925,-6.201496498535549,-0.20442137918804082,1.017692041142448,9.743565388008752,0.026816083206891723,0.02287281348039043,0.016362461737446838,8.086082169514055,-35.662563005873075,-48.875
1772310587.0883284,92.59450313689503,1.0261827217066142,-6.22632471782052,-0.22731119806140204,1.0206956122979312,9.782514066379663,0.0027650338388897494,-0.0013688981839893193,0.04145156973486533,6.724155237710596,-36.12252091963086,-49.25
1772310587.1513314,92.6225054283619,1.05433756957004,-6.215072549153192,-0.24254411682559324,1.0226944553498172,9.761602412847788,-0.0010334830057197673,-0.0003490339137251075,0.00545415391248228,6.724155237710596,-36.12252091963086,-49.25
1772310587.1736388,92.6225054283619,1.05433756957004,-6.215072549153192,-0.24254411682559324,1.0226944553498172,9.761602412847788,-0.0010334830057197673,-0.0003490339137251075,0.00545415391248228,6.724155237710596,-36.12252091963086,-49.25
1772310587.1961825,92.6225054283619,1.05433756957004,-6.215072549153192,-0.24254411682559324,1.0226944553498172,9.761602412847788,-0.0010334830057197673,-0.0003490339137251075,0.00545415391248228,6.724155237710596,-36.12252091963086,-49.25
1772310587.2239347,92.66333696707508,1.0564341426226174,-6.179543301895207,-0.1794545877950661,0.964017716049446,9.734305494191524,-0.017569211097236043,-0.0059335765333268274,-0.002181661564992912,5.597524571484269,-36.107204525850925,-48.5
1772310587.262351,92.64377464693706,1.0553529468218907,-6.1795750878709965,-0.12479220861878385,0.9292503527480382,9.696069029508426,0.0006572116210835496,0.008281482781213694,-0.037088246604879506,5.597524571484269,-36.107204525850925,-48.5
1772310587.285634,92.60911366886293,1.0478873653108687,-6.184098377881771,-0.09483703275704829,0.9251285643918721,9.667277977683801,-0.007583414953763478,-0.0014097543903559852,-0.015271630954950384,5.0414772872291165,-35.43741058912675,-48.5
1772310587.3039672,92.60911366886293,1.0478873653108687,-6.184098377881771,-0.09483703275704829,0.9251285643918721,9.667277977683801,-0.007583414953763478,-0.0014097543903559852,-0.015271630954950384,5.0414772872291165,-35.43741058912675,-48.5
1772310587.3381925,92.57475897285792,1.0389965429495849,-6.163473367181019,-0.12561020729303637,0.9052601553207819,9.648117854311634,-0.009650380965203013,-0.0021078222178062002,0.0,5.0414772872291165,-35.43741058912675,-48.5
1772310587.406331,92.36521322966775,1.0277161741618996,-6.1653698441837985,-0.14367437161403562,0.8357335586707031,9.671451428734287,0.0020669660114395346,0.000698067827450215,-0.05345070834232634,5.71283181608111,-35.27664493175578,-49.25
1772310587.4599185,92.36521322966775,1.0277161741618996,-6.1653698441837985,-0.14367437161403562,0.8357335586707031,9.671451428734287,0.0020669660114395346,0.000698067827450215,-0.05345070834232634,5.71283181608111,-35.27664493175578,-49.25
1772310587.49344,92.38137362256177,1.011749907921399,-6.177643076646187,-0.17506926435708742,0.8541644287428091,9.677656133023785,-0.0037712793736984058,-0.005879101591504606,-0.002181661564992912,4.1356067888639,-36.271091367477524,-48.875
