timestamp,yaw,pitch,roll,ax,ay,az,gx,gy,gz,mx,my,mz
1772908140.5219903,-0.0685357669680761,0.8294837326523129,-9.446534740632835,-0.13268312129078752,-1.6171300757118694,9.773439941668062,0.001090830782496456,0.003272492347489368,-0.001090830782496456,10.75,7.0,-80.0
1772908140.5399122,-0.0685357669680761,0.8294837326523129,-9.446534740632835,-0.13513069895390978,-1.6247803208600429,9.772289242753429,0.0,0.0,0.002181661564992912,10.75,7.0,-80.0
1772908140.5572448,-0.0685357669680761,0.8294837326523129,-9.446534740632835,-0.13675953454748369,-1.6298714735473145,9.77152346547989,0.0,0.0,0.0,10.75,6.25,-80.0
1772908140.5689116,-0.0685357669680761,0.8294837326523129,-9.446534740632835,-0.13675953454748369,-1.6298714735473145,9.77152346547989,0.0,0.0,0.0,10.75,6.25,-80.0
1772908140.583814,-0.12412667088117568,0.817827664214919,-9.502872227073395,-0.1411886181470407,-1.6366046904961111,9.771013849258642,-0.07853981633974483,0.008726646259971648,-0.08617563181722002,10.75,6.25,-80.0
1772908140.5968556,-0.12412667088117568,0.817827664214919,-9.502872227073395,-0.1411886181470407,-1.6366046904961111,9.771013849258642,-0.07853981633974483,0.008726646259971648,-0.08617563181722002,10.75,6.25,-80.0
1772908140.6300654,-0.05375896420173765,0.8096391491175677,-9.572436769563138,-0.1407910120991209,-1.9187298428680826,9.770674705356187,-0.04254240051736178,0.002181661564992912,0.008726646259971648,10.75,6.25,-80.0
1772908140.6586704,-0.05375896420173765,0.8096391491175677,-9.572436769563138,-0.1407910120991209,-1.9187298428680826,9.770674705356187,-0.04254240051736178,0.002181661564992912,0.008726646259971648,10.75,6.25,-80.0
1772908140.6721761,-0.05375896420173765,0.8096391491175677,-9.572436769563138,-0.1407910120991209,-1.9187298428680826,9.770674705356187,-0.04254240051736178,0.002181661564992912,0.008726646259971648,10.75,6.25,-80.0
1772908140.685693,0.022035688082813944,0.8369763886908942,-9.45294877329869,-0.24422487264268175,-2.1064809802271793,9.917633923999643,0.04799655442984406,0.002181661564992912,0.0,10.0625,6.6875,-80.75
1772908140.7024405,0.022035688082813944,0.8369763886908942,-9.45294877329869,-0.24422487264268175,-2.1064809802271793,9.917633923999643,0.04799655442984406,0.002181661564992912,0.0,10.0625,6.6875,-80.75
1772908140.7224255,-0.025658093244613052,0.8190025766110383,-9.46033718193407,-0.0454500148169413,-1.8534296418949414,9.951876519925758,-0.002181661564992912,-0.00545415391248228,-0.037088246604879506,10.0625,6.6875,-80.75
1772908140.7485597,-0.025658093244613052,0.8190025766110383,-9.46033718193407,-0.0454500148169413,-1.8534296418949414,9.951876519925758,-0.002181661564992912,-0.00545415391248228,-0.037088246604879506,10.0625,6.6875,-80.75
1772908140.8101473,0.06460623792799254,0.8265075938469844,-9.508588347431484,-0.184121615687434,-1.685026803003504,9.974664584999726,0.009817477042468103,-0.015271630954950384,0.0272707695624114,11.1875,7.25,-82.375
1772908140.8317962,0.07109786765510435,0.8340408027804488,-9.494414903606256,-0.13256621358873255,-1.6498941641725693,9.929617777015336,0.01090830782496456,0.001090830782496456,0.03381575425739013,11.1875,7.25,-82.375
1772908140.919667,0.17540442040712462,0.8427993236808807,-9.529001533343196,-0.17184912696465002,-1.636549120609831,9.849462953897751,-0.02945243112740431,0.00545415391248228,0.006544984694978736,12.25,8.0625,-84.0
1772908140.9576447,0.23824072548290826,0.8479912594914126,-9.514421169812435,-0.15450501480227602,-1.617632808070775,9.846297490110832,0.013089969389957472,0.00545415391248228,0.004363323129985824,12.25,8.0625,-84.0
1772908140.9811623,0.2792309481475324,0.8585497683562076,-9.549452911421405,-0.1864491540997958,-1.615079548507048,9.907748031760253,-0.02399827721492203,-0.002181661564992912,0.03599741582238305,12.25,9.1875,-85.5625
1772908141.02002,0.2792309481475324,0.8585497683562076,-9.549452911421405,-0.1864491540997958,-1.615079548507048,9.907748031760253,-0.02399827721492203,-0.002181661564992912,0.03599741582238305,12.25,9.1875,-85.5625
1772908141.0394523,0.34247357449041793,0.8567950669224921,-9.55550262699139,-0.1642211697677261,-1.7304592925453441,9.948642680780415,-0.009817477042468103,-0.003272492347489368,0.04581489286485115,12.25,9.1875,-85.5625
1772908141.0607097,0.3780345335459801,0.8527340675597713,-9.541704851177437,-0.1828798115707821,-1.8072432233266384,9.949096719221615,-0.003272492347489368,-0.018544123302439753,0.03599741582238305,13.0,11.0,-87.1875
1772908141.0772972,0.3780345335459801,0.8527340675597713,-9.541704851177437,-0.1828798115707821,-1.8072432233266384,9.949096719221615,-0.003272492347489368,-0.018544123302439753,0.03599741582238305,13.0,11.0,-87.1875
1772908141.1085312,0.41914744769514384,0.8632054946807841,-9.554956153429414,-0.12839469511364227,-1.781404502260536,9.912602647951779,-0.003272492347489368,0.004363323129985824,0.025089107997418487,13.0,11.0,-87.1875
1772908141.1618304,0.49470982843156847,0.8835216913530152,-9.547308313724642,-0.12224146411592073,-1.750828675199194,9.88831625118719,0.003272492347489368,0.003272492347489368,0.04690572364734761,12.5625,11.375,-87.5625
1772908141.180474,0.6271003317510148,0.8946289161679685,-9.55341528697643,-0.11814655762303107,-1.7438612506735163,9.872153925437184,-0.011999138607461015,-0.02181661564992912,0.06326818538479445,12.5625,11.375,-87.5625
1772908141.2135754,0.7107498468584618,0.9016221814870076,-9.552809019989867,-0.11542144309511575,-1.7258440606536318,9.837982296244329,-0.002181661564992912,-0.008726646259971648,0.050178215994836975,13.75,12.875,-88.375
1772908141.2462718,0.8019027319503457,0.9022813764182577,-9.559254987398969,-0.1336785800622283,-1.810862061472861,9.828621905567871,-0.014180800172453928,-0.004363323129985824,0.04581489286485115,13.75,12.875,-88.375
1772908141.2816334,0.8019027319503457,0.9022813764182577,-9.559254987398969,-0.1336785800622283,-1.810862061472861,9.828621905567871,-0.014180800172453928,-0.004363323129985824,0.04581489286485115,13.75,12.875,-88.375
1772908141.316609,1.0946555944428904,0.9205395014214518,-9.634371965938154,-0.13165279253586598,-1.7880968010792209,9.818247183539716,-0.01090830782496456,-0.011999138607461015,0.05126904677733343,14.0625,14.25,-89.5625
1772908141.4004936,1.4029299421348393,0.9257187376861024,-9.653027760791616,-0.11102924472580014,-1.6917252028660843,9.828868855347881,0.008726646259971648,-0.014180800172453928,0.08944812416470939,14.0625,16.5625,-89.5625
1772908141.4227505,1.612679024249447,0.936424765224031,-9.651660703076939,-0.13744584452615813,-1.627590980796532,9.809176565625812,-0.00545415391248228,-0.015271630954950384,0.07526732399225546,14.0625,16.5625,-89.5625
1772908141.4562304,1.8223353817374794,0.9470825806580034,-9.649738189304518,-0.054672445380959764,-1.5916005958500867,9.82283246045162,0.001090830782496456,-0.007635815477475192,0.09490227807719166,14.5,17.25,-93.0625
1772908141.521141,2.079181743510563,0.9828206378857982,-9.647751726881932,-0.08321546557226833,-1.594410290365725,9.8051594122533,-0.001090830782496456,0.0,0.11999138607461016,14.5,17.25,-93.0625
1772908141.552753,2.079181743510563,0.9828206378857982,-9.647751726881932,-0.08321546557226833,-1.594410290365725,9.8051594122533,-0.001090830782496456,0.0,0.11999138607461016,14.5,17.25,-93.0625
1772908141.582968,2.323781837920268,0.9962781176058955,-9.638537128018472,-0.10221052666315691,-1.6598372331186062,9.790053084390882,-0.009817477042468103,-0.007635815477475192,0.23125612588924865,14.75,19.5,-92.75
1772908141.6324744,2.8957340276867343,1.0435526522131089,-9.5981093723603,-0.14667975451611548,-1.729009003203451,9.763274436104343,0.002181661564992912,-0.013089969389957472,0.09599310885968812,16.0,21.25,-94.75
1772908141.6588168,2.8957340276867343,1.0435526522131089,-9.5981093723603,-0.14667975451611548,-1.729009003203451,9.763274436104343,0.002181661564992912,-0.013089969389957472,0.09599310885968812,16.0,21.25,-94.75
1772908141.7141235,3.0434307461239194,1.0419361910096898,-9.597444882063828,-0.13775507859808897,-1.699234497336182,9.77221443577155,-0.009817477042468103,-0.01090830782496456,0.08072147790473774,16.0,21.25,-94.75
1772908141.749599,3.445559108596539,1.1035194350802184,-9.585704191052649,-0.0782940191526945,-1.6426236675040247,9.758093235439821,0.007635815477475192,-0.009817477042468103,-35.62435169476926,14.75,25.0,-95.5625
1772908141.787379,3.5782479656232593,1.114434414305442,-9.577711151689385,-0.03872334831534033,-1.641746021415642,9.772111516314434,-0.007635815477475192,-0.014180800172453928,0.11562806294462433,14.75,25.0,-95.5625
1772908141.8311741,3.9059586735047036,1.1418680644896397,-9.574260471363349,-0.07594663134550596,-1.6244363992111757,9.778095413934713,-0.007635815477475192,-0.002181661564992912,0.12544553998709243,15.5625,25.75,-94.6875
1772908141.8626077,4.121691939718167,1.1666880322502224,-9.564868442388654,-0.10071831039076459,-1.6630937146050437,9.78542274266381,-0.00545415391248228,-0.008726646259971648,0.13744467859455345,15.5625,25.75,-94.6875
1772908141.9154289,4.6291861097810925,1.2301663310874684,-9.558739565694598,-0.11720358607759793,-1.7022001729984326,9.78695388637408,0.001090830782496456,-0.006544984694978736,0.12326387842209953,14.75,28.25,-95.5
1772908141.9640245,4.9862883306789145,1.245681311893401,-9.548523091971195,-0.09137812411407667,-1.7282250842114693,9.700999941018965,0.0,0.009817477042468103,0.14944381720201447,14.75,28.25,-95.5
1772908142.0366056,5.769844889824457,1.2897032653378602,-9.534021837572626,-0.1452038218217985,-1.750379940983681,9.61242188759497,0.006544984694978736,-0.008726646259971648,0.13744467859455345,14.75,30.875,-96.0
1772908142.1096156,5.769844889824457,1.2897032653378602,-9.534021837572626,-0.1452038218217985,-1.750379940983681,9.61242188759497,0.006544984694978736,-0.008726646259971648,0.13744467859455345,14.75,30.875,-96.0
1772908142.1708927,6.350208860261199,1.3298863767313907,-9.50689412710211,-0.15684353212118582,-1.6833506123340332,9.621647074262153,0.002181661564992912,-0.001090830782496456,0.14944381720201447,14.75,33.875,-96.6875
1772908142.1991637,6.9373999434832445,1.3716808204768807,-9.500391653018914,-0.14786407076474756,-1.632053119469716,9.66458256171759,-0.001090830782496456,-0.018544123302439753,0.14508049407202864,15.5625,35.25,-94.75
1772908142.25396,7.209024500256538,1.4012419962729072,-9.496386436124787,-0.14188833953919366,-1.6046054344136937,9.693155648998362,0.001090830782496456,-0.013089969389957472,0.11671889372712078,15.5625,35.25,-94.75
1772908142.2872982,7.362296434227212,1.4214377353649497,-9.501376613510825,-0.1379115571618792,-1.6197904236928369,9.708825607694097,0.007635815477475192,0.001090830782496456,0.09599310885968812,14.75,35.25,-95.5
1772908142.3066719,7.523246497133145,1.4287384775348975,-9.513660425674962,-0.13191994120602696,-1.6499665346745782,9.705873343331923,-0.018544123302439753,-0.004363323129985824,0.09708393964218458,14.75,35.25,-95.5
1772908142.3401968,7.732938336856076,1.4457014661887897,-9.504014125080179,-0.12124236430350424,-1.6700483994436803,9.717289091207128,-0.007635815477475192,-0.003272492347489368,0.10035643198967395,16.0,37.5625,-96.25
1772908142.3696148,7.935566290455629,1.4630348131270816,-9.508521519372295,-0.0940658859073084,-1.6834126561183895,9.71150569706654,-0.014180800172453928,0.003272492347489368,0.13199052468207118,16.0,37.5625,-96.25
1772908142.425647,8.189879451056866,1.4546527347877973,-9.486416496380723,-0.059254684579198344,-1.6287492972078115,9.731072694821961,-0.006544984694978736,-0.001090830782496456,0.15489797111449674,16.0,37.5625,-96.25
1772908142.4944687,8.791032836685746,1.5028638878454936,-9.457260993689653,-0.03608821896193959,-1.619132336141106,9.744094313250507,-0.008726646259971648,-0.015271630954950384,0.16471544815696484,15.5625,40.1875,-93.5
1772908142.53123,9.33890251004047,1.5213391530124414,-9.466501552847772,-0.05077720024590571,-1.6127323559797078,9.759450278268334,-0.003272492347489368,-0.018544123302439753,0.16144295580947549,15.5625,40.1875,-93.5
1772908142.5869863,9.907406436324333,1.5461821947317904,-9.44653569010429,-0.0960095095526733,-1.6056388470167526,9.783148683743368,0.0,-0.01090830782496456,0.13962634015954636,15.5625,42.375,-94.25
1772908142.6036055,9.907406436324333,1.5461821947317904,-9.44653569010429,-0.0960095095526733,-1.6056388470167526,9.783148683743368,0.0,-0.01090830782496456,0.13962634015954636,15.5625,42.375,-94.25
1772908142.6689606,10.465278035524834,1.6214980153187122,-9.450642427904999,-0.11604178581024831,-1.5523206309161197,9.82040501777664,0.003272492347489368,-0.004363323129985824,0.08617563181722002,16.25,42.6875,-93.5
1772908142.7286403,10.465278035524834,1.6214980153187122,-9.450642427904999,-0.11604178581024831,-1.5523206309161197,9.82040501777664,0.003272492347489368,-0.004363323129985824,0.08617563181722002,16.25,42.6875,-93.5
1772908142.7913733,10.646854646364194,1.6384826038147895,-9.468862058908124,-0.15081696974606376,-1.6284819232198777,9.836995093342606,-0.003272492347489368,0.001090830782496456,0.07853981633974483,16.0,45.6875,-92.0
1772908142.8171582,10.968673536660576,1.6734635134320037,-9.477908472372162,-0.10371212033738403,-1.582158172958386,9.647328900869306,0.0,-0.006544984694978736,0.1461713248545251,16.0,45.6875,-92.0
1772908142.845529,11.699400370976063,1.7046261312422653,-9.455540398945786,-0.1158508214467054,-1.5513302346295599,9.521108168488519,0.002181661564992912,-0.018544123302439753,0.21162117180431245,15.1875,47.5,-93.0625
1772908142.959354,12.219250163250658,1.7336410282187156,-9.449140051992261,-0.1038583211928663,-1.5308145860423614,9.567569037652527,-0.004363323129985824,-0.011999138607461015,0.1712604328519436,15.1875,47.5,-93.0625
1772908143.0322113,13.476322100659488,1.7398380027178553,-9.44119676905849,-0.09056626310932009,-1.5415032524669738,9.646897193172716,-0.01090830782496456,-0.017453292519943295,0.2007128639793479,16.0,48.5625,-89.5625
1772908143.0767524,13.476322100659488,1.7398380027178553,-9.44119676905849,-0.09056626310932009,-1.5415032524669738,9.646897193172716,-0.01090830782496456,-0.017453292519943295,0.2007128639793479,16.0,48.5625,-89.5625
1772908143.1142666,14.307450724956764,1.786624327593177,-9.424297172703197,-0.15153449198392174,-1.5528917631271646,9.682029680342602,0.003272492347489368,-0.017453292519943295,0.18216874067690814,15.5625,50.5,-88.375
1772908143.1554408,14.307450724956764,1.786624327593177,-9.424297172703197,-0.15153449198392174,-1.5528917631271646,9.682029680342602,0.003272492347489368,-0.017453292519943295,0.18216874067690814,15.5625,50.5,-88.375
1772908143.1875284,14.852660028046943,1.7819130547708502,-9.414973997165063,-0.12760540532266562,-1.5285086541067816,9.738217628619417,0.01090830782496456,-0.019634954084936207,0.2007128639793479,15.1875,50.0625,-88.75
1772908143.2030637,15.063148449087114,1.80527093908486,-9.403776813656263,-0.1116808654550123,-1.5122819674308914,9.775610080537128,-0.001090830782496456,-0.009817477042468103,0.18544123302439752,15.1875,50.0625,-88.75
1772908143.2181165,15.360393894170155,1.8148277271459294,-9.394330469456676,-0.12115393230577141,-1.531589294077928,9.800494339587308,-0.002181661564992912,-0.015271630954950384,0.17998707911191522,15.1875,50.0625,-88.75
1772908143.2362964,15.360393894170155,1.8148277271459294,-9.394330469456676,-0.14083859930313872,-1.564508774528477,9.776913195521983,-0.01090830782496456,-0.017453292519943295,0.18762289458939044,15.5625,52.25,-87.5625
1772908143.284791,16.14643312930682,1.8148644578372788,-9.376216931761425,-0.15393852529774832,-1.5864163210336255,9.75118487244319,0.011999138607461015,-0.017453292519943295,0.20180369476184434,15.5625,52.25,-87.5625
1772908143.311771,16.456765875911913,1.841292811701701,-9.378510179016068,-0.1660014914187187,-1.587615101680195,9.734062960838454,-0.006544984694978736,-0.018544123302439753,0.1810779098944117,15.5625,52.25,-87.5625
1772908143.3654757,17.01162349147298,1.8184401515040167,-9.38655301362096,-0.17402926062006357,-1.5884128768092296,9.69925273797855,-0.013089969389957472,-0.03599741582238305,0.19744037163185854,16.0,52.25,-85.5625
1772908143.3935246,17.01162349147298,1.8184401515040167,-9.38655301362096,-0.17402926062006357,-1.5884128768092296,9.69925273797855,-0.013089969389957472,-0.03599741582238305,0.19744037163185854,16.0,52.25,-85.5625
1772908143.4125462,17.374369926495643,1.8182846864147673,-9.371464420860379,-0.1960972098840977,-1.6525009096849383,9.739644045960022,0.01090830782496456,-0.0272707695624114,0.19853120241435498,16.0,52.25,-85.5625
1772908143.496016,18.31165467259604,1.8246361295888684,-9.360395374200953,-0.18712905797463153,-1.7034631214433749,9.795554818530555,0.00545415391248228,-0.008726646259971648,0.20289452554434081,16.25,54.1875,-84.875
1772908143.5123749,18.52303067544312,1.846599201379401,-9.341904209958551,-0.16801874990872476,-1.6387475461958965,9.82045756333925,-0.007635815477475192,-0.009817477042468103,0.19416787928436915,16.25,54.1875,-84.875
1772908143.5565784,18.52303067544312,1.846599201379401,-9.341904209958551,-0.16801874990872476,-1.6387475461958965,9.82045756333925,-0.007635815477475192,-0.009817477042468103,0.19416787928436915,16.25,54.1875,-84.875
1772908143.5796058,19.35170987077462,1.906092168657982,-9.32299186716575,-0.1486108299523537,-1.545503378179252,9.877171402315383,-0.008726646259971648,-0.018544123302439753,0.21162117180431245,16.6875,53.75,-85.5625
1772908143.5928957,19.578216887402508,1.9164747097167878,-9.31316960804595,-0.14238529943669884,-1.5336271015795717,9.914913828618907,0.003272492347489368,-0.016362461737446838,0.20943951023931956,16.6875,53.75,-85.5625
1772908143.6202726,19.578216887402508,1.9164747097167878,-9.31316960804595,-0.14238529943669884,-1.5336271015795717,9.914913828618907,0.003272492347489368,-0.016362461737446838,0.20943951023931956,16.6875,53.75,-85.5625
1772908143.6501167,19.983978643254503,1.92186290940802,-9.311207628204848,-0.13155205500762432,-1.5658649126570194,9.85640319903039,-0.00545415391248228,-0.013089969389957472,0.18435040224190105,17.5,54.5,-83.5625
1772908143.6671631,20.29145596137904,1.906712351593364,-9.320184356970511,-0.12434265185534478,-1.6006992626383925,9.817465028645792,-0.018544123302439753,-0.025089107997418487,0.1810779098944117,17.5,54.5,-83.5625
1772908143.6927571,20.29145596137904,1.906712351593364,-9.320184356970511,-0.12434265185534478,-1.6006992626383925,9.817465028645792,-0.018544123302439753,-0.025089107997418487,0.1810779098944117,17.5,54.5,-83.5625
1772908143.721474,20.726182191746343,1.9107145016709637,-9.297144892526823,-0.10950953946985464,-1.6238811334258103,9.791552111222705,-0.007635815477475192,-0.018544123302439753,0.1930770485018727,16.6875,55.1875,-84.0625
1772908143.7501833,21.03221631485609,1.92307424225254,-9.301525071923844,-0.09963826887403322,-1.5924768455739011,9.764272019021938,-0.009817477042468103,-0.011999138607461015,0.18435040224190105,16.6875,55.1875,-84.0625
1772908143.7709482,21.34855052400995,1.9005054068228682,-9.30541646223976,-0.09306904856183179,-1.571577642817337,9.746117422400923,-0.02399827721492203,-0.02399827721492203,0.18762289458939044,16.25,56.0,-82.875
1772908143.7937636,21.34855052400995,1.9005054068228682,-9.30541646223976,-0.09306904856183179,-1.571577642817337,9.746117422400923,-0.02399827721492203,-0.02399827721492203,0.18762289458939044,16.25,56.0,-82.875
1772908143.8093314,21.705191491256457,1.901990082743578,-9.30448932905413,-0.09873264094901904,-1.6111912441593452,9.734035741149771,0.001090830782496456,-0.014180800172453928,0.21598449493429828,16.25,56.0,-82.875
1772908143.8411748,22.36065114410276,1.9346332028732063,-9.297605948633676,-0.07574080475766472,-1.63755365333953,9.692544400165158,-0.013089969389957472,-0.017453292519943295,0.19198621771937624,17.0625,56.6875,-81.25
1772908143.87453,22.36065114410276,1.9346332028732063,-9.297605948633676,-0.07574080475766472,-1.63755365333953,9.692544400165158,-0.013089969389957472,-0.017453292519943295,0.19198621771937624,17.0625,56.6875,-81.25
1772908143.896599,22.695498489157085,1.9631871043245048,-9.299137417721441,-0.06043999460795728,-1.655097542161537,9.664932376228546,-0.002181661564992912,-0.011999138607461015,0.19416787928436915,17.0625,56.6875,-81.25
1772908143.9365768,23.274235396759202,1.9787319930765221,-9.309803873536913,-0.0502574763745756,-1.696878809560378,9.700078670062357,0.007635815477475192,-0.015271630954950384,0.2083486794568231,17.75,56.6875,-81.6875
1772908143.9636176,23.575278977944087,1.9772164956481442,-9.317088018593092,-0.05351645935839988,-1.7246837762869682,9.730158359413572,-0.011999138607461015,-0.01090830782496456,0.17998707911191522,17.75,56.6875,-81.6875
1772908144.002714,23.899409190547487,1.9677835376537778,-9.312104771828375,-0.06906572295818718,-1.7030463305538517,9.750176056664658,-0.002181661564992912,-0.019634954084936207,0.20180369476184434,17.5,56.375,-81.25
1772908144.0674512,24.35831891781672,1.9708653462959296,-9.311421393152076,-0.0794135841871901,-1.6886468521245688,9.713320934963136,-0.011999138607461015,-0.0272707695624114,0.20398535632683726,17.5,56.375,-81.25
1772908144.0975819,25.13370913609331,1.9791809188770908,-9.310012793110296,-0.10302552877850454,-1.6790641600825946,9.688794263169457,-0.00545415391248228,-0.025089107997418487,0.1930770485018727,17.0625,57.875,-81.25
1772908144.1661694,25.68822431885924,1.9847546994864553,-9.316875157145802,-0.11873901414132074,-1.6492712036231092,9.736029159510709,-0.015271630954950384,-0.02181661564992912,0.20180369476184434,17.0625,57.875,-81.25
1772908144.2713723,26.12882391966618,1.9775270272801475,-9.34101276961547,-0.09239993433862889,-1.69300144634752,9.767463455377445,-0.014180800172453928,-0.02181661564992912,0.19634954084936207,17.0625,58.1875,-79.25
1772908144.3472836,28.053987044594244,2.0034743510895914,-9.302680608434617,-0.08996753458929241,-1.6701868991920479,9.71873541120088,0.00545415391248228,-0.011999138607461015,0.1908953869368798,17.0625,58.875,-78.875
1772908144.391969,28.053987044594244,2.0034743510895914,-9.302680608434617,-0.08996753458929241,-1.6701868991920479,9.71873541120088,0.00545415391248228,-0.011999138607461015,0.1908953869368798,17.0625,58.875,-78.875
1772908144.4236596,28.63438049325862,1.9962213951953625,-9.306494772690975,-0.10001372975379465,-1.6801597144464653,9.705777983451291,-0.004363323129985824,-0.014180800172453928,0.21162117180431245,18.0625,58.875,-77.25
1772908144.465173,29.09088859681401,2.2468589933634413,-10.186211804348229,-0.14015047748561155,-1.6867965115946342,9.713880518564489,-0.007635815477475192,-0.017453292519943295,0.19962203319685143,18.0625,58.875,-77.25
1772908144.499695,29.63403971469459,2.014632774671637,-9.298128994580134,-0.13006480596377268,-1.6577621088856649,9.709237330049115,-0.004363323129985824,-0.018544123302439753,0.20180369476184434,18.5,58.875,-76.5
1772908144.5476973,30.170887057588857,2.0243987539482764,-9.297671033033382,-0.1233529042303219,-1.6384400382183755,9.706147339959948,-0.017453292519943295,-0.019634954084936207,0.19634954084936207,18.5,58.875,-76.5
1772908144.588476,30.48387828131949,2.0123488006613997,-9.287513551354875,-0.11888620860356547,-1.6456520862748827,9.677330092414504,0.0,-0.0272707695624114,0.1832595714594046,18.875,59.25,-75.75
1772908144.615675,30.702283822824292,2.0128007256931513,-9.273894952518592,-0.12260389597485732,-1.6504516236926325,9.658152536082758,0.0,-0.011999138607461015,0.2007128639793479,18.875,59.25,-75.75
1772908144.664666,31.001229382516055,2.0166890801763993,-9.274477968318694,-0.1652193158789956,-1.643610327107841,9.732362990961626,0.002181661564992912,-0.018544123302439753,0.1712604328519436,18.875,59.25,-75.75
1772908144.6909838,31.42505314529126,1.992268163282877,-9.290435590334079,-0.15343806129193485,-1.5688101747992453,9.781749219698414,0.001090830782496456,-0.013089969389957472,0.1908953869368798,18.875,58.5,-76.5
1772908144.7442212,31.9502563778559,2.0078351101657863,-9.2892936916402,-0.17570377333535725,-1.5892788548640324,9.797889644705826,0.008726646259971648,-0.013089969389957472,0.20289452554434081,18.875,58.5,-76.5
1772908144.7968352,32.425723756583416,1.9973422268042687,-9.287729902990025,-0.13699956865884405,-1.60290053279701,9.798595582125941,-0.009817477042468103,-0.004363323129985824,0.17562375598192942,18.875,60.375,-75.25
1772908144.817246,32.425723756583416,1.9973422268042687,-9.287729902990025,-0.13699956865884405,-1.60290053279701,9.798595582125941,-0.009817477042468103,-0.004363323129985824,0.17562375598192942,18.875,60.375,-75.25
1772908144.8544905,32.7419729998271,1.987269719830293,-9.285670811340609,-0.14424242900517337,-1.6213434248210352,9.792675974490054,-0.006544984694978736,-0.017453292519943295,0.17016960206944712,19.25,58.875,-73.75
1772908144.8976352,33.32434335283505,2.0058360537247375,-9.276074227391629,-0.14424242900517337,-1.6213434248210352,9.792675974490054,-0.006544984694978736,-0.017453292519943295,0.17016960206944712,19.25,58.875,-73.75
1772908144.9192681,33.72272384412756,1.9863821154063113,-9.292312606816461,-0.14616840081922508,-1.6275842576259991,9.781745496008579,-0.006544984694978736,-0.016362461737446838,0.17998707911191522,19.25,58.875,-73.75
1772908144.9864366,34.325107143011984,1.986260806657791,-9.289640430684381,-0.14745011354696164,-1.6384276855576712,9.774471384680602,-0.001090830782496456,-0.020725784867432664,0.1810779098944117,19.25,60.0,-74.5625
1772908145.0148916,34.617487076908795,1.996704924591425,-9.288425043341293,-0.1516481907569204,-1.6456438657171721,9.77966587997094,-0.004363323129985824,-0.008726646259971648,0.16907877128695067,19.25,60.0,-74.5625
1772908145.0706553,35.20680959890151,1.995552911768075,-9.286349733011926,-0.15444196424455278,-1.6504461530033059,9.783122758560346,0.004363323129985824,-0.016362461737446838,0.17998707911191522,19.25,60.375,-73.25
1772908145.0935388,35.51718284010247,1.987527714660917,-9.269546371687117,-0.13288540734084173,-1.6235360161812895,9.775387937523773,0.002181661564992912,-0.022907446432425576,0.18980455615438332,19.25,60.375,-73.25
1772908145.1271763,35.920532576157726,2.0114116332725733,-9.257852117939462,-0.11853975952394069,-1.6056276207321625,9.770240500527546,0.011999138607461015,-0.017453292519943295,0.18544123302439752,20.0,60.375,-74.0625
1772908145.1498191,36.07386636237088,2.032686832980537,-9.259643088199939,-0.19931090725080264,-1.6673022411716798,9.716638263097405,-0.004363323129985824,-0.008726646259971648,0.12762720155208535,20.0,60.375,-74.0625
1772908145.1699252,36.07386636237088,2.032686832980537,-9.259643088199939,-0.19931090725080264,-1.6673022411716798,9.716638263097405,-0.004363323129985824,-0.008726646259971648,0.12762720155208535,20.0,60.375,-74.0625
1772908145.2496367,36.4952456614789,2.029041491127682,-9.27189504842539,-0.20676300811277593,-1.7745780056845064,9.591252672448052,0.00545415391248228,-0.016362461737446838,0.05999569303730508,19.5625,60.0,-73.75
1772908145.2915475,36.6150211961128,2.0208986625988774,-9.283288399440332,-0.18108492440006596,-1.7797368350580034,9.610904309764827,-0.007635815477475192,0.004363323129985824,0.05781403147231216,19.5625,60.0,-73.75
1772908145.3182251,36.7053137918016,1.9993861233038526,-9.283807232238477,-0.16399644653224732,-1.7095775208171393,9.623982254875967,-0.0272707695624114,-0.025089107997418487,0.05999569303730508,18.0625,60.0,-72.0625
1772908145.3868363,36.90546828945969,1.9934428125083496,-9.280279322772207,-0.0790317978409931,-1.649506834091459,9.80997640174514,0.016362461737446838,-0.009817477042468103,0.12435470920459599,18.0625,60.0,-72.0625
1772908145.4134452,36.90546828945969,1.9934428125083496,-9.280279322772207,-0.0790317978409931,-1.649506834091459,9.80997640174514,0.016362461737446838,-0.009817477042468103,0.12435470920459599,18.0625,60.0,-72.0625
1772908145.4394057,37.6876016373727,2.0369468614926918,-9.273300103402162,-0.022488773254278165,-1.6095304631090575,9.933753428795818,-0.004363323129985824,-0.016362461737446838,0.17998707911191522,18.5,59.6875,-71.375
1772908145.4809117,38.011929984308544,2.069835277689043,-9.265347871230157,-0.06848781470177462,-1.6029973050295097,9.87897607761796,0.007635815477475192,-0.008726646259971648,0.18980455615438332,18.5,59.6875,-71.375
1772908145.517418,38.56124505839462,2.067684073546759,-9.24911001722242,-0.09909966294212207,-1.5986495613077283,9.842522362312202,-0.009817477042468103,-0.009817477042468103,0.11999138607461016,20.0,59.6875,-69.75
1772908145.5804448,38.88491401447917,2.0253162797548363,-9.260032967252176,-0.08936550062344802,-1.6593133088674308,9.818262821990901,-0.004363323129985824,-0.009817477042468103,0.1559888018969932,20.0,59.6875,-69.75
1772908145.6015892,38.88491401447917,2.0253162797548363,-9.260032967252176,-0.08288752433808834,-1.6996843552099503,9.802118368903898,0.002181661564992912,-0.016362461737446838,0.1407171709420428,19.25,60.375,-71.0
1772908145.631611,39.12186992802726,2.03608742236651,-9.273514883175302,-0.08288752433808834,-1.6996843552099503,9.802118368903898,0.002181661564992912,-0.016362461737446838,0.1407171709420428,19.25,60.375,-71.0
1772908145.6529977,39.37408176632766,2.056492818433426,-9.26914732158162,-0.16220429616690266,-1.7265508355767603,9.757923298646661,-0.004363323129985824,-0.018544123302439753,0.07417649320975901,19.25,60.375,-71.0
1772908145.6743836,39.492415930862364,2.0833662308381333,-9.253723045194636,-0.21498872179258227,-1.7243595078987057,9.648229292106087,-0.008726646259971648,-0.006544984694978736,0.08072147790473774,19.25,60.375,-71.0
1772908145.6946461,39.492415930862364,2.0833662308381333,-9.253723045194636,-0.21498872179258227,-1.7243595078987057,9.648229292106087,-0.008726646259971648,-0.006544984694978736,0.08072147790473774,19.25,60.375,-71.0
1772908145.7232563,39.58826006410827,2.0911864365700437,-9.251805131841458,-0.21331993862528964,-1.7128658686857363,9.575229156115677,0.00545415391248228,-0.003272492347489368,0.061086523819801536,19.5625,60.375,-69.75
1772908145.7837133,39.98963426593985,2.120093386692915,-9.275649340175683,-0.18544848841043077,-1.6583854162793965,9.667143072786425,-0.013089969389957472,-0.016362461737446838,0.1265363707695889,19.5625,60.375,-69.75
1772908145.8012006,40.14737633273621,2.1237397929424957,-9.26891530859632,-0.14348456768570556,-1.6221292837895072,9.728310757585083,-0.002181661564992912,-0.02181661564992912,0.13526301702956053,19.5625,60.375,-69.75
1772908145.832611,40.402317887554126,2.1001579141322853,-9.265148403885107,-0.13897382916234613,-1.6515230199421331,9.732220939750267,-0.006544984694978736,-0.017453292519943295,0.11344640137963143,20.0,60.375,-69.375
1772908145.8688552,40.74194795726986,2.0619421326786713,-9.283152659693279,-0.0991757542827881,-1.727951122026588,9.694681781813767,-0.009817477042468103,-0.015271630954950384,0.15707963267948966,20.0,60.375,-69.375
1772908145.886455,40.74194795726986,2.0619421326786713,-9.283152659693279,-0.0991757542827881,-1.727951122026588,9.694681781813767,-0.009817477042468103,-0.015271630954950384,0.15707963267948966,20.0,60.375,-69.375
1772908145.9066527,40.907249298407244,2.0621548600689406,-9.28522267433016,-0.1295574790484979,-1.721946271181522,9.709841232034728,-0.001090830782496456,-0.018544123302439753,0.1505346479845109,19.25,60.375,-68.5625
1772908145.9308248,41.17577080560983,2.0733739208783546,-9.291675031741134,-0.1353752645458076,-1.6985769708679828,9.8547820862878,0.003272492347489368,-0.004363323129985824,0.136353847812057,19.5625,61.5,-69.0
1772908145.9787586,41.64886133630434,2.072453804541931,-9.298001370995578,-0.136922290216915,-1.6656018729357256,9.856527536712447,0.001090830782496456,-0.019634954084936207,0.15489797111449674,19.5625,61.5,-69.0
1772908146.0293095,42.00119546543851,2.0904786138669618,-9.303285993790956,-0.1580224887635442,-1.6804535423983014,9.85768911447209,-0.02181661564992912,-0.008726646259971648,0.11017390903214205,20.375,60.75,-67.0
1772908146.0640833,42.28005559609387,2.0909228718931483,-9.299380704720347,-0.17206443519166412,-1.7438589498387373,9.858462131495457,-0.013089969389957472,-0.02399827721492203,0.12871803233458182,20.375,60.75,-67.0
1772908146.1017513,42.571119512026016,2.1107676648639666,-9.302738012183388,-0.1981347522173554,-1.7860545402055374,9.832215672030788,0.002181661564992912,-0.007635815477475192,0.1308996938995747,18.5,60.375,-68.5625
1772908146.146845,42.8281539878238,2.1119855460185106,-9.305903500332489,-0.19206847502219423,-1.7907194522877783,9.804713611327257,0.013089969389957472,-0.003272492347489368,0.10581058590215622,18.5,60.375,-68.5625
1772908146.1887522,42.996933620895945,2.076115477740304,-9.329765741374102,-0.1880314353135709,-1.7704081172167916,9.796446632269161,0.002181661564992912,-0.013089969389957472,0.09599310885968812,20.0,61.1875,-67.375
1772908146.2114449,43.11875733545425,2.0754815617081577,-9.339512764553787,-0.18534483048417044,-1.75354603891221,9.787599938346887,0.006544984694978736,-0.006544984694978736,0.10253809355466686,20.0,61.1875,-67.375
1772908146.2450235,43.11875733545425,2.0754815617081577,-9.339512764553787,-0.18534483048417044,-1.75354603891221,9.787599938346887,0.006544984694978736,-0.006544984694978736,0.10253809355466686,20.0,61.1875,-67.375
1772908146.275835,43.5408161414758,2.0800958269414394,-9.351044156326113,-0.22136581711012365,-1.7705339663408943,9.80007956414123,-0.008726646259971648,-0.002181661564992912,0.08617563181722002,20.375,60.375,-66.1875
1772908146.3214817,43.5408161414758,2.0800958269414394,-9.351044156326113,-0.20083826578569416,-1.7870809071716673,9.80339806075452,0.004363323129985824,0.002181661564992912,0.06872233929727672,19.5625,61.5,-65.75
1772908146.3982608,44.11803699316696,2.0584094952319982,-9.375889808042215,-0.18717740968705954,-1.7980927114531062,9.8357124885465,-0.016362461737446838,-0.011999138607461015,0.09381144729469522,19.5625,61.5,-65.75
1772908146.435634,44.11803699316696,2.0584094952319982,-9.375889808042215,-0.18717740968705954,-1.7980927114531062,9.8357124885465,-0.016362461737446838,-0.011999138607461015,0.09381144729469522,19.5625,61.5,-65.75
1772908146.4612737,44.264054083954754,2.045421673483121,-9.368539556704182,-0.1680509274332216,-1.7050675929729084,9.780279809997907,-0.001090830782496456,-0.016362461737446838,0.08399397025222712,19.5625,61.1875,-64.5625
1772908146.5075672,44.52875706805634,2.0499316244342,-9.34047332008362,-0.158667578857418,-1.6097092987098052,9.719974199696175,-0.002181661564992912,0.008726646259971648,0.08726646259971647,19.5625,61.1875,-64.5625
1772908146.5424917,44.63404050280161,2.063892989148741,-9.351556906768737,-0.15242306519909232,-1.5462494190996532,9.67984148969818,0.002181661564992912,0.003272492347489368,0.020725784867432664,19.25,61.1875,-64.5625
1772908146.575259,44.63404050280161,2.063892989148741,-9.351556906768737,-0.14826741111526476,-1.6612378283564122,9.656478731213578,-0.001090830782496456,-0.014180800172453928,0.08290313946973066,19.25,61.1875,-64.5625
1772908146.6113331,44.79071192591671,2.0871014026347083,-9.33665390739028,-0.14826741111526476,-1.6612378283564122,9.656478731213578,-0.001090830782496456,-0.014180800172453928,0.08290313946973066,19.25,61.1875,-64.5625
1772908146.6657672,45.0400962755053,2.109073483125877,-9.354249325982426,-0.18229809852468853,-1.767867335577964,9.79480621495788,-0.013089969389957472,-0.007635815477475192,0.08072147790473774,20.375,60.75,-65.75
1772908146.7149866,45.22129135893873,2.1158297166152398,-9.331323283361533,-0.20494514084797333,-1.892349868821375,9.886861610170474,-0.001090830782496456,-0.01090830782496456,0.08290313946973066,20.375,60.75,-65.75
1772908146.7534072,45.47841157032097,2.1432069467872696,-9.324031295761959,-0.23005182965203852,-1.9751916041338549,9.934743000529034,-0.01090830782496456,0.004363323129985824,0.044724062082354694,18.875,61.1875,-64.1875
1772908146.8193107,45.63880509942563,2.139619018718665,-9.335647344149894,-0.24341493888373403,-1.9901805130936592,9.909740631918048,0.019634954084936207,0.003272492347489368,0.031634092692397225,18.875,61.1875,-64.1875
1772908146.88038,45.83733406760763,2.133703804277692,-9.333634792103101,-0.2523079388017163,-1.9432885655448955,9.86299582953632,-0.008726646259971648,-0.011999138607461015,0.038179077387375956,18.875,60.75,-63.0625
1772908146.9024408,45.86828392876046,2.1370700100340705,-9.317704546152639,-0.24150057236921837,-1.7849682533904327,9.811817015481022,0.014180800172453928,0.003272492347489368,0.007635815477475192,18.875,60.75,-63.0625
1772908146.9307234,45.86828392876046,2.1370700100340705,-9.317704546152639,-0.24150057236921837,-1.7849682533904327,9.811817015481022,0.014180800172453928,0.003272492347489368,0.007635815477475192,18.875,60.75,-63.0625
1772908146.9854188,45.96140632912901,2.110601493149415,-9.3074406344509,-0.2276181673199456,-1.6796078542054054,9.777758086432033,-0.004363323129985824,0.001090830782496456,0.050178215994836975,19.25,61.5,-61.5
1772908147.005936,46.016449560399906,2.109352429210508,-9.347243281598406,-0.2250698052509188,-1.7098450367201272,9.761782473027736,-0.0272707695624114,0.003272492347489368,0.030543261909900768,19.25,61.5,-61.5
1772908147.0432787,46.12709485115432,2.15258754524498,-9.353407458646974,-0.21668367534641225,-1.7299675439122142,9.751150880766472,0.008726646259971648,-0.001090830782496456,0.05345070834232634,19.25,61.1875,-62.25
1772908147.0773065,46.12709485115432,2.15258754524498,-9.353407458646974,-0.21668367534641225,-1.7299675439122142,9.751150880766472,0.008726646259971648,-0.001090830782496456,0.05345070834232634,19.25,61.1875,-62.25
1772908147.1271849,46.22230724963029,2.198244834864858,-9.350620194670975,-0.2177930229888111,-1.783500188153247,9.744075674879268,-0.011999138607461015,0.013089969389957472,0.03599741582238305,19.25,61.1875,-62.25
1772908147.1761518,46.307565679496854,2.193082971635862,-9.339163072540492,-0.21518616974528298,-1.8191255648968356,9.7460574278112,0.0,-0.002181661564992912,0.04690572364734761,20.0,61.1875,-61.0625
1772908147.2010548,46.39727608664578,2.216967472584237,-9.32274861537902,-0.27031823705660335,-1.84283385515816,9.794207826152242,0.001090830782496456,-0.009817477042468103,0.05345070834232634,20.0,61.1875,-61.0625
1772908147.2398398,46.40378661486258,2.2176433135565605,-9.322278992983593,-0.2501411129623124,-1.8084347818783253,9.826251378373012,-0.004363323129985824,0.001090830782496456,-0.009817477042468103,20.0,61.1875,-61.0625
1772908147.2603774,46.40378661486258,2.2176433135565605,-9.322278992983593,-0.2501411129623124,-1.8084347818783253,9.826251378373012,-0.004363323129985824,0.001090830782496456,-0.009817477042468103,20.0,61.1875,-61.0625
1772908147.3041606,46.54385012540288,2.1920324878725825,-9.305104039340282,-0.19657212178297367,-1.785542582873422,9.7606031000357,0.016362461737446838,0.006544984694978736,0.02399827721492203,18.875,60.375,-61.75
1772908147.3370728,46.55973238044496,2.1749437536261116,-9.297256221392885,-0.16092255655796445,-1.6164329416215857,9.716914904141538,-0.002181661564992912,-0.002181661564992912,0.002181661564992912,18.875,60.375,-61.75
1772908147.3617563,46.55973238044496,2.1749437536261116,-9.297256221392885,-0.16092255655796445,-1.6164329416215857,9.716914904141538,-0.002181661564992912,-0.002181661564992912,0.002181661564992912,18.875,60.375,-61.75
1772908147.3785458,46.608817196847134,2.1327340991646593,-9.278049509571296,-0.13385305742513826,-1.4737863590810847,9.687840897803097,0.014180800172453928,0.008726646259971648,0.017453292519943295,18.875,61.5,-60.25
1772908147.4055839,46.67008708185646,2.1129770241558155,-9.271930820800916,-0.14259950179691602,-1.3788566518671168,9.698598476728671,0.004363323129985824,0.009817477042468103,0.026179938779914945,18.875,61.5,-60.25
1772908147.4419901,46.67008708185646,2.1129770241558155,-9.271930820800916,-0.16180060965142617,-1.3758940028822824,9.695722190211653,0.0,0.001090830782496456,0.015271630954950384,18.875,59.25,-59.5
1772908147.4765818,46.70127073585936,2.1189895559427128,-9.262514635603981,-0.16180060965142617,-1.3758940028822824,9.695722190211653,0.0,0.001090830782496456,0.015271630954950384,18.875,59.25,-59.5
1772908147.4952419,46.72329203485055,2.11451144568352,-9.264475419745171,-0.17457873243817393,-1.3739223930778328,9.70384338878676,-0.003272492347489368,-0.006544984694978736,0.039269908169872414,18.875,59.25,-59.5
1772908147.544956,46.72329203485055,2.11451144568352,-9.264475419745171,-0.17457873243817393,-1.3739223930778328,9.70384338878676,-0.003272492347489368,-0.006544984694978736,0.039269908169872414,18.875,59.25,-59.5
1772908147.566922,46.771077920074305,2.1025688846879778,-9.263032033957995,-0.18308243041177022,-1.372610308777296,9.72262840254804,-0.00545415391248228,-0.015271630954950384,0.015271630954950384,20.0,60.75,-59.0625
1772908147.5911946,46.785962937904436,2.101035756453309,-9.256183654324795,-0.11514908885964156,-1.3784273547468697,9.758545401315054,0.009817477042468103,-0.009817477042468103,0.020725784867432664,20.0,60.75,-59.0625
1772908147.6107576,46.785962937904436,2.101035756453309,-9.256183654324795,-0.11514908885964156,-1.3784273547468697,9.758545401315054,0.009817477042468103,-0.009817477042468103,0.020725784867432664,20.0,60.75,-59.0625
1772908147.6614962,46.854789775499434,2.100188243469456,-9.257666735949604,-0.1502228898975133,-1.3956789806882373,9.782447762775336,-0.002181661564992912,-0.00545415391248228,0.03381575425739013,18.875,60.75,-59.5
1772908147.6868446,46.8259542949202,2.08490489499892,-9.263925176362216,-0.1735641126881875,-1.403814633331609,9.74817784171049,0.00545415391248228,-0.015271630954950384,0.0,18.875,60.75,-59.5
1772908147.7221081,46.8259542949202,2.08490489499892,-9.263925176362216,-0.1735641126881875,-1.403814633331609,9.74817784171049,0.00545415391248228,-0.015271630954950384,0.0,18.875,60.75,-59.5
1772908147.7926707,46.879357277194934,2.091995926413655,-9.269482152804946,-0.18909743571683826,-1.4125739309918977,9.725371592061936,0.009817477042468103,-0.008726646259971648,0.022907446432425576,18.5,60.75,-59.5
1772908147.8227992,46.863582890595666,2.078066778820871,-9.274832054639278,-0.18605424184454014,-1.4786151564688024,9.710194287683326,0.009817477042468103,0.0,-0.02181661564992912,18.5,60.75,-59.5
1772908147.8726192,46.863582890595666,2.078066778820871,-9.274832054639278,-0.18605424184454014,-1.4786151564688024,9.710194287683326,0.009817477042468103,0.0,-0.02181661564992912,18.5,60.75,-59.5
1772908147.9084935,46.81971480261879,2.058750370910179,-9.274935348077,-0.18402903031722873,-1.5225648542948558,9.713474407990237,-0.014180800172453928,0.003272492347489368,-0.00545415391248228,18.875,60.0,-59.0625
1772908148.0124676,46.73862624075027,2.0235734937502743,-9.281153270488453,-0.18735560452154534,-1.6336798116826319,9.77508403221154,-0.007635815477475192,0.001090830782496456,-0.02181661564992912,18.0625,59.6875,-57.875
1772908148.072546,46.73862624075027,2.0235734937502743,-9.281153270488453,-0.18735560452154534,-1.6336798116826319,9.77508403221154,-0.007635815477475192,0.001090830782496456,-0.02181661564992912,18.0625,59.6875,-57.875
1772908148.1324127,46.59075273357759,1.9783210829830975,-9.31360894124724,-0.14199729844016476,-1.6237850373770684,9.8134646304564,0.001090830782496456,0.0,-0.017453292519943295,18.0625,60.375,-56.25
1772908148.1581128,46.5211748933514,1.9636881367271195,-9.310542342179787,-0.1580547383372411,-1.5890677830196072,9.815650784573595,0.001090830782496456,0.001090830782496456,-0.04581489286485115,18.0625,60.375,-56.25
1772908148.1968656,46.4783837181929,1.9517599328587125,-9.345851046621549,-0.19550167887394376,-1.5659638380618588,9.823795869132287,-0.015271630954950384,0.002181661564992912,-0.06326818538479445,18.0625,59.25,-55.5
1772908148.2225242,46.4783837181929,1.9517599328587125,-9.345851046621549,-0.19550167887394376,-1.5659638380618588,9.823795869132287,-0.015271630954950384,0.002181661564992912,-0.06326818538479445,18.0625,59.25,-55.5
1772908148.2641654,46.30462041016479,1.9338195198645665,-9.35811565101361,-0.22042219949138475,-1.5505884207804532,9.82921633191954,0.009817477042468103,0.003272492347489368,-0.026179938779914945,18.0625,59.25,-55.5
1772908148.3108592,46.16838915239455,1.9034922719647753,-9.368229925860552,-0.23031630416719737,-1.7243373962369086,9.779301802036809,-0.008726646259971648,0.007635815477475192,-0.05781403147231216,18.5,60.75,-54.6875
1772908148.3357031,46.16838915239455,1.9034922719647753,-9.368229925860552,-0.23031630416719737,-1.7243373962369086,9.779301802036809,-0.008726646259971648,0.007635815477475192,-0.05781403147231216,18.5,60.75,-54.6875
1772908148.3705935,46.060642242428244,1.9167719892573873,-9.368287066825411,-0.21348493835332386,-1.7529924941096464,9.746084239981684,0.0,0.014180800172453928,-0.04363323129985824,18.5,60.75,-54.6875
1772908148.3952093,45.94018781951653,1.8976676120951457,-9.36661426220746,-0.21900941095946364,-1.7720621416455364,9.744048993742396,-0.002181661564992912,0.00545415391248228,-0.044724062082354694,17.75,59.25,-55.5
1772908148.4155707,45.88823771209393,1.877756623338426,-9.366438476097423,-0.22268588576644707,-1.7412663268635984,9.759420118641938,-0.007635815477475192,-0.004363323129985824,-0.04908738521234052,17.75,59.25,-55.5
1772908148.466162,45.88823771209393,1.877756623338426,-9.366438476097423,-0.22268588576644707,-1.7412663268635984,9.759420118641938,-0.007635815477475192,-0.004363323129985824,-0.04908738521234052,17.75,59.25,-55.5
1772908148.494578,45.69590710658122,1.8129617235865905,-9.397889377994556,-0.22513253868158,-1.6705953805282197,9.769649430555868,0.0,-0.01090830782496456,-0.04799655442984406,18.0625,58.1875,-54.6875
1772908148.5342553,45.5899223074088,1.7850884965990643,-9.407176419699583,-0.20669008862178082,-1.6235646551882226,9.766421588243729,-0.009817477042468103,-0.008726646259971648,-0.04036073895236887,18.0625,58.1875,-54.6875
1772908148.5609205,45.463784654505744,1.7534398139584666,-9.395462921529031,-0.18772662070801158,-1.5119835518664149,9.704061484510612,0.01090830782496456,-0.004363323129985824,-0.06981317007977318,17.75,58.5,-54.25
1772908148.582207,45.40432118049126,1.729225002261463,-9.404288318935848,-0.1583810861106179,-1.4377275740483464,9.662561532084226,-0.016362461737446838,0.0,-0.04581489286485115,17.75,58.5,-54.25
1772908148.5999422,45.40432118049126,1.729225002261463,-9.404288318935848,-0.1583810861106179,-1.4377275740483464,9.662561532084226,-0.016362461737446838,0.0,-0.04581489286485115,17.75,58.5,-54.25
1772908148.631447,45.31468172262298,1.7089041544940746,-9.411024422868486,-0.12140327685809292,-1.6552477822661107,9.755845624580303,0.003272492347489368,0.016362461737446838,-0.07417649320975901,18.0625,58.1875,-53.0625
1772908148.6697543,45.081017874093156,1.6804986332293423,-9.410653341756818,-0.14100453531734752,-1.7638810268180674,9.780651091516841,-0.006544984694978736,0.006544984694978736,-0.05781403147231216,18.0625,58.1875,-53.0625
1772908148.7048326,44.96107207406525,1.6533759997718178,-9.389126062864921,-0.15404895386157755,-1.83617523755454,9.83060996974108,0.002181661564992912,0.004363323129985824,-0.05781403147231216,17.75,57.875,-53.5
1772908148.7574818,44.76729536255474,1.62588860164233,-9.41968910558204,-0.1627298686870598,-1.9344629028302045,9.863857045122074,-0.026179938779914945,0.002181661564992912,-0.05345070834232634,17.75,57.875,-53.5
1772908148.8038044,44.607480982755646,1.6076174021089047,-9.408448374864454,-0.14843625028732943,-1.829271549052709,9.765558580930461,0.013089969389957472,0.014180800172453928,-0.07417649320975901,17.75,58.5,-52.0
1772908148.836557,44.3917083377327,1.5717318636433166,-9.441777422414994,-0.2091713527661955,-1.8696565645197407,9.700142051076737,-0.019634954084936207,0.003272492347489368,-0.10035643198967395,17.75,58.5,-52.0
1772908148.886246,44.265031445767406,1.5508745408135423,-9.455381976819421,-0.17934253915662476,-1.8965323411828683,9.683368974868158,-0.015271630954950384,0.001090830782496456,-0.06872233929727672,17.0625,58.875,-52.25
1772908148.9116273,44.1582990673111,1.5422499927906632,-9.456398850251963,-0.19963313739696892,-1.914417870330083,9.712348020506719,-0.001090830782496456,0.007635815477475192,-0.08072147790473774,17.0625,58.875,-52.25
1772908148.944645,43.88987968969054,1.4977898791175324,-9.461514303061447,-0.21313630386508414,-1.8125866921342435,9.691491911174197,0.001090830782496456,0.003272492347489368,-0.12762720155208535,16.6875,57.875,-52.75
1772908148.9679723,43.808408033759214,1.479430537738465,-9.489880052674497,-0.2221225103093619,-1.744819180573707,9.67426729168409,-0.018544123302439753,0.013089969389957472,-0.07744898555724837,16.6875,57.875,-52.75
1772908148.983399,43.69687755549887,1.4597437259159418,-9.503084841159337,-0.1645456078764571,-1.7565875576673051,9.662804499825032,0.0,0.008726646259971648,-0.09708393964218458,16.6875,57.875,-52.75
1772908149.0152478,43.69687755549887,1.4597437259159418,-9.503084841159337,-0.1645456078764571,-1.7565875576673051,9.662804499825032,0.0,0.008726646259971648,-0.09708393964218458,16.6875,57.875,-52.75
1772908149.0701723,16.037159958717798,1.4087514856382521,-9.52565068997717,-0.15090610544081934,-1.7807618780305252,9.754869711756896,0.006544984694978736,0.006544984694978736,-0.07963064712224129,16.0,58.1875,-51.5
1772908149.0965352,15.9191445136151,1.3869191189662067,-9.54337335280466,-0.1907443435368369,-1.7637814627819823,9.813452749507718,-0.001090830782496456,0.00545415391248228,-0.06872233929727672,16.0,58.1875,-51.5
1772908149.131939,15.9191445136151,1.3869191189662067,-9.54337335280466,-0.1907443435368369,-1.7637814627819823,9.813452749507718,-0.001090830782496456,0.00545415391248228,-0.06872233929727672,16.0,58.1875,-51.5
1772908149.1492617,15.985211782792405,1.3507894868205794,-9.547959480281525,-0.1938404640162222,-1.7424458509957859,9.85243910671548,-0.003272492347489368,-0.001090830782496456,-0.0818123086872342,17.75,57.5,-50.75
1772908149.202823,15.797026864660054,1.3142030757599972,-9.55314407849898,-0.17248511565808552,-1.6814156757840009,9.82151719290667,0.016362461737446838,0.008726646259971648,-0.09599310885968812,17.75,57.5,-50.75
1772908149.2402773,15.742306731875981,1.2868624692296984,-9.542554606218939,-0.15827336988061752,-1.6408007759322853,9.800939004687317,0.001090830782496456,0.014180800172453928,-0.09817477042468103,16.0,58.1875,-50.75
1772908149.2672167,15.742306731875981,1.2868624692296984,-9.542554606218939,-0.15827336988061752,-1.6408007759322853,9.800939004687317,0.001090830782496456,0.014180800172453928,-0.09817477042468103,16.0,58.1875,-50.75
1772908149.2891521,15.652701181914804,1.2604209698516828,-9.56052418920985,-0.13209005328471812,-1.7074351415840703,9.787244450300761,0.019634954084936207,0.013089969389957472,-0.11235557059713497,16.0,58.1875,-50.75
1772908149.3300552,15.603463645920085,1.2543965729739734,-9.547070511184588,-0.15146157735747123,-1.78857579635121,9.75136998367615,0.028361600344907856,0.019634954084936207,-0.08072147790473774,17.0625,57.5,-50.375
1772908149.3792377,15.603463645920085,1.2543965729739734,-9.547070511184588,-0.15146157735747123,-1.78857579635121,9.75136998367615,0.028361600344907856,0.019634954084936207,-0.08072147790473774,17.0625,57.5,-50.375
1772908149.4003234,15.393435456874213,1.227653951145318,-9.586175285951812,-0.12755688145327254,-1.8057777669177244,9.724150815174204,-0.00545415391248228,-0.002181661564992912,-0.08399397025222712,17.0625,57.5,-50.375
1772908149.4402666,15.153743571654811,1.206677549042903,-9.58134746955135,-0.14227480978388773,-1.8727470766187404,9.69398206294942,-0.003272492347489368,0.006544984694978736,-0.10799224746714914,16.0,58.1875,-49.5625
1772908149.4905138,15.085154792023706,1.1878823144514228,-9.591295444402965,-0.14227480978388773,-1.8727470766187404,9.69398206294942,-0.003272492347489368,0.006544984694978736,-0.10799224746714914,16.0,58.1875,-49.5625
1772908149.5186176,15.137780630885393,1.1533280054879669,-9.617256725530938,-0.16827475415844206,-1.885208595632193,9.749516917434711,-0.017453292519943295,0.009817477042468103,-0.09599310885968812,16.6875,56.6875,-49.5625
1772908149.552715,14.867387488319856,1.1612253150559988,-9.636742726561371,-0.18223231499397954,-1.893501597331357,9.786474742729698,-0.004363323129985824,0.028361600344907856,-0.12544553998709243,16.6875,56.6875,-49.5625
1772908149.59641,14.607589290706867,1.2621677870860193,-10.551603613991333,-0.19152091581385913,-1.875604715372016,9.811069762617553,-0.011999138607461015,0.017453292519943295,-0.11344640137963143,15.5625,55.5625,-48.0
1772908149.6135538,14.416192280923351,1.1388929278323023,-9.653323470146049,-0.19770237589901915,-1.8603494286420261,9.763880351169478,0.003272492347489368,0.017453292519943295,-0.11780972450961724,15.5625,55.5625,-48.0
1772908149.6374354,14.288918949654189,1.136875916725291,-9.667571433232087,-0.20181606853425954,-1.8501972057359366,9.775962777186203,-0.004363323129985824,0.016362461737446838,-0.11562806294462433,15.5625,55.5625,-48.0
1772908149.6589687,14.084934872054285,1.1265628806324997,-9.668927769905228,-0.16106723283490235,-1.7531229987020713,9.753897491364917,0.00545415391248228,0.013089969389957472,-0.1265363707695889,14.0625,56.6875,-47.1875
1772908149.6802034,14.022211879640263,1.116012913896279,-9.684357869039202,-0.19750646031036884,-1.7989098846525184,9.76262907208748,-0.013089969389957472,0.008726646259971648,-0.1090830782496456,14.0625,56.6875,-47.1875
1772908149.7093012,14.022211879640263,1.116012913896279,-9.684357869039202,-0.19750646031036884,-1.7989098846525184,9.76262907208748,-0.013089969389957472,0.008726646259971648,-0.1090830782496456,14.0625,56.6875,-47.1875
1772908149.7364023,13.74735517411497,1.1049694120107987,-9.671406777170054,-0.1782699069472976,-1.718991859437972,9.768439841520197,0.001090830782496456,0.015271630954950384,-0.12762720155208535,14.0625,56.6875,-47.1875
1772908149.7659938,13.375047394075311,1.0783951523678075,-9.716856496120647,-0.16546819557055475,-1.5922148488395018,9.772306843667122,-0.004363323129985824,0.01090830782496456,-0.11017390903214205,14.75,55.5625,-48.375
1772908149.7973137,13.240943106042877,1.0739854874077064,-9.71716079844224,-0.15694879965381853,-1.5078461644782213,9.728048726496185,0.004363323129985824,0.02399827721492203,-0.12326387842209953,14.75,55.5625,-48.375
1772908149.842367,12.979374001919249,1.0726917933381566,-9.717037628752141,-0.17134990708303494,-1.495186199690898,9.69859544391449,0.0,0.022907446432425576,-0.11017390903214205,14.75,55.5625,-46.75
1772908149.858974,12.979374001919249,1.0726917933381566,-9.717037628752141,-0.17134990708303494,-1.495186199690898,9.69859544391449,0.0,0.022907446432425576,-0.11017390903214205,14.75,55.5625,-46.75
1772908149.8939285,12.804707065685127,1.050858759824436,-9.719519654759317,-0.18093368320626774,-1.4867611345460072,9.685684836785736,0.002181661564992912,0.008726646259971648,-0.10471975511965978,14.75,55.5625,-46.75
1772908149.916582,12.906104361306985,1.0200252388845044,-9.744131977494572,-0.18731157915848515,-1.4811543478062268,9.67709297196248,-0.013089969389957472,0.008726646259971648,-0.1407171709420428,15.1875,55.1875,-46.375
1772908149.9449937,12.914960895170072,0.9998482868713321,-9.746475753908332,-0.17817555083964226,-1.5476704397165217,9.704826298973217,0.025089107997418487,0.014180800172453928,-0.11780972450961724,15.1875,55.1875,-46.375
1772908149.9787602,12.914960895170072,0.9998482868713321,-9.746475753908332,-0.17817555083964226,-1.5476704397165217,9.704826298973217,0.025089107997418487,0.014180800172453928,-0.11780972450961724,15.1875,55.1875,-46.375
1772908150.0070343,12.854742025330989,0.9598405791924032,-9.750889388131421,-0.17209562604957565,-1.5919361558493907,9.7232825182973,-0.001090830782496456,-0.004363323129985824,-0.11017390903214205,13.75,54.1875,-47.1875
1772908150.03502,12.884906112582724,0.94145459426179,-9.753258850906327,-0.16804950401899638,-1.5845982666748528,9.735564926087998,0.011999138607461015,0.015271630954950384,-0.11344640137963143,13.75,54.1875,-47.1875
1772908150.0577989,12.884906112582724,0.94145459426179,-9.753258850906327,-0.16804950401899638,-1.5845982666748528,9.735564926087998,0.011999138607461015,0.015271630954950384,-0.11344640137963143,13.75,54.1875,-47.1875
1772908150.0754087,12.709705929280007,0.9272689664140336,-9.761811503385236,-0.16870196671310983,-1.5797149833987907,9.700252279074071,0.007635815477475192,0.01090830782496456,-0.11235557059713497,13.75,54.1875,-47.1875
1772908150.0916507,12.964427005162394,0.9134236674334608,-9.756106976605285,-0.16913617334755648,-1.5831554363430587,9.676752106954417,-0.007635815477475192,0.007635815477475192,-0.10581058590215622,14.5,53.75,-46.0
1772908150.1256592,12.719550056629869,0.8847683493027241,-9.751790731882881,-0.17946046813433297,-1.6021705778816884,9.66111300492291,0.011999138607461015,0.008726646259971648,-0.11999138607461016,14.5,53.75,-46.0
1772908150.213318,12.654222406852115,0.8310612450908478,-9.765234896166133,-0.1863311709850032,-1.5980993836260007,9.657395580635798,-0.001090830782496456,0.009817477042468103,-0.1265363707695889,13.375,53.75,-45.5625
1772908150.235285,12.53506935023479,0.8193466825596798,-9.752095716216951,-0.19090354698134449,-1.5585938205465468,9.654921676299075,0.019634954084936207,0.013089969389957472,-0.10471975511965978,13.375,53.75,-45.5625
1772908150.2863698,12.358652642653661,0.8113336324484949,-9.752144018409064,-0.18725618871548425,-1.5323033096232255,9.686726437671501,-0.007635815477475192,0.006544984694978736,-0.1090830782496456,12.5625,53.375,-44.0
1772908150.3160439,12.106426975919815,0.7912807972009095,-9.768028950425172,-0.18482891253321573,-1.5148072682880052,9.711237262789707,-0.025089107997418487,0.01090830782496456,-0.12544553998709243,12.5625,53.375,-44.0
1772908150.331104,12.106426975919815,0.7912807972009095,-9.768028950425172,-0.18482891253321573,-1.5148072682880052,9.711237262789707,-0.025089107997418487,0.01090830782496456,-0.12544553998709243,12.5625,53.375,-44.0
1772908150.3572853,11.88377848839409,0.7575199299926306,-9.764318606625205,-0.1832135873483676,-1.5232345184669203,9.76434517188253,0.001090830782496456,0.009817477042468103,-0.10144726277217041,12.25,52.6875,-44.375
1772908150.3850427,11.88377848839409,0.7575199299926306,-9.764318606625205,-0.1832135873483676,-1.5232345184669203,9.76434517188253,0.001090830782496456,0.009817477042468103,-0.10144726277217041,12.25,52.6875,-44.375
1772908150.4087057,11.721710380822762,0.7485468477583817,-9.743323949495267,-0.18882882989685457,-1.5288427593224354,9.78630744530031,0.00545415391248228,0.01090830782496456,-0.08617563181722002,12.25,52.6875,-44.375
1772908150.452829,11.734749001781434,0.6819669485616245,-9.771556699015797,-0.1950525637745166,-1.6186865254571747,9.810649643152036,0.006544984694978736,0.01090830782496456,-0.11017390903214205,11.875,52.6875,-44.375
1772908150.4864104,11.737077954286027,0.6528060386812947,-9.760338500068436,-0.17998197792182774,-1.6759927963886514,9.837193223919245,0.009817477042468103,0.002181661564992912,-0.07635815477475191,11.875,52.25,-44.75
1772908150.523027,11.591036006487204,0.6263818052583814,-9.762479649199033,-0.16995267138633802,-1.6204663517356153,9.854857680408598,-0.009817477042468103,0.0,-0.11344640137963143,11.875,52.25,-44.75
1772908150.6016133,11.438579654730516,0.5972425566943023,-9.744043312952257,-0.1699685033363032,-1.5835141230900485,9.8231267266822,0.016362461737446838,0.00545415391248228,-0.09599310885968812,10.75,51.1875,-44.5
1772908150.6433854,11.247211152860764,0.601259354507929,-9.735514527217815,-0.16997903932215058,-1.5589228277098646,9.802010131435262,0.016362461737446838,0.004363323129985824,-0.11453723216212788,10.75,51.1875,-44.5
1772908150.6723578,11.115387974864328,0.5746970574852973,-9.72355569563599,-0.16998605090303734,-1.5459027070444402,9.78795727318625,0.013089969389957472,0.011999138607461015,-0.10471975511965978,11.0625,50.0625,-43.5625
1772908150.7145739,11.115387974864328,0.5746970574852973,-9.72355569563599,-0.16998605090303734,-1.5459027070444402,9.78795727318625,0.013089969389957472,0.011999138607461015,-0.10471975511965978,11.0625,50.0625,-43.5625
1772908150.7819755,10.737259937421886,0.5494561593091699,-9.725207654733081,-0.12986430179353736,-1.5281501995527562,9.70552663386437,0.01090830782496456,0.007635815477475192,-0.08726646259971647,11.5,48.75,-44.6875
1772908151.0471177,10.737259937421886,0.5494561593091699,-9.725207654733081,-0.12986430179353736,-1.5281501995527562,9.70552663386437,0.01090830782496456,0.007635815477475192,-0.08726646259971647,11.5,48.75,-44.6875
1772908151.1141503,0.0,0.0,0.0,-0.10314880070089233,-1.5889809891977331,9.837482381392968,-0.004363323129985824,0.014180800172453928,-0.07090400086226964,11.5,48.75,-44.6875
1772908151.1388602,10.315694410594542,0.530766650599054,-9.683273515199364,-0.09206015657007714,-1.6294632001820204,9.925297457330966,0.020725784867432664,0.016362461737446838,-0.039269908169872414,9.25,46.1875,-46.25
1772908151.180202,9.854216504016556,0.48080571057548155,-9.559224065183042,-0.11478679313516524,-1.5593954198638744,9.940250957213879,0.015271630954950384,0.013089969389957472,35.53272190903956,9.25,46.1875,-46.25
1772908151.2040355,9.77138932796832,0.45930227063633683,-9.553699539002931,-0.12991111589606644,-1.3689262913558062,9.950202344344419,-0.00545415391248228,-0.008726646259971648,-0.037088246604879506,8.1875,45.0625,-45.5
1772908151.2332017,9.890671723946319,0.464721348150019,-9.58168122460096,-0.03627772081678997,-1.242171214013264,9.956824881315516,-0.018544123302439753,-0.028361600344907856,0.10471975511965978,8.1875,45.0625,-45.5
1772908151.2558208,9.890671723946319,0.464721348150019,-9.58168122460096,-0.03627772081678997,-1.242171214013264,9.956824881315516,-0.018544123302439753,-0.028361600344907856,0.10471975511965978,8.1875,45.0625,-45.5
1772908151.2744308,9.959453193510125,0.4862965244402534,-9.60123448775411,0.026034257654911602,-1.3919749455011496,9.937816323739959,-0.018544123302439753,0.009817477042468103,0.009817477042468103,8.1875,45.0625,-45.5
1772908151.2862158,9.941805174928755,0.4491941267522537,-9.59773319433911,-0.11982407235246456,-1.5686052246573556,9.874989665403136,0.015271630954950384,-0.0272707695624114,-0.03490658503988659,9.6875,44.375,-46.25
1772908151.3011277,9.941805174928755,0.4491941267522537,-9.59773319433911,-0.11982407235246456,-1.5686052246573556,9.874989665403136,0.015271630954950384,-0.0272707695624114,-0.03490658503988659,9.6875,44.375,-46.25
1772908151.3162742,9.877182613819093,0.45721131209818283,-9.589280165442629,-0.21689116162806787,-1.68615070234631,9.83317922609974,0.008726646259971648,0.0272707695624114,-0.05345070834232634,9.6875,44.375,-46.25
1772908151.3343155,9.877182613819093,0.45721131209818283,-9.589280165442629,-0.21689116162806787,-1.68615070234631,9.83317922609974,0.008726646259971648,0.0272707695624114,-0.05345070834232634,9.6875,44.375,-46.25
1772908151.3617477,9.932937920350406,0.4676221401266415,-9.574771393349565,-0.20455065596220173,-1.6406067715084702,9.805354845796538,0.013089969389957472,0.0,0.04799655442984406,9.25,47.75,-43.5
1772908151.4077086,9.941175237161326,0.45492526073858225,-9.583044995429672,-0.1963381872940486,-1.5567760069778205,9.740006467620981,-0.002181661564992912,-0.013089969389957472,0.008726646259971648,9.25,47.75,-43.5
1772908151.4252577,9.913027500230886,0.4537965364877111,-9.597036803271612,-0.1908728811346787,-1.554509356950782,9.70989829876364,0.004363323129985824,-0.004363323129985824,-0.009817477042468103,9.6875,47.375,-44.25
1772908151.4798067,9.934104022547467,0.45373506285732385,-9.57598111217728,-0.2340673448395595,-1.5162046978974144,9.689861648719363,0.007635815477475192,0.0,0.007635815477475192,9.6875,47.375,-44.25
1772908151.5033932,9.934104022547467,0.45373506285732385,-9.57598111217728,-0.2340673448395595,-1.5162046978974144,9.689861648719363,0.007635815477475192,0.0,0.007635815477475192,9.6875,47.375,-44.25
1772908151.5205927,9.934104022547467,0.45373506285732385,-9.57598111217728,-0.1825300969457172,-1.5709960561641418,9.703288375597499,-0.009817477042468103,-0.004363323129985824,-0.002181661564992912,8.5625,48.0625,-44.25
1772908151.5839832,9.938884013255677,0.4839118491745785,-9.594707249908213,-0.21847998003485325,-1.6041139813237537,9.728949270885128,0.006544984694978736,-0.004363323129985824,0.00545415391248228,8.5625,48.0625,-44.25
1772908151.5968375,9.938884013255677,0.4839118491745785,-9.594707249908213,-0.21847998003485325,-1.6041139813237537,9.728949270885128,0.006544984694978736,-0.004363323129985824,0.00545415391248228,8.5625,48.0625,-44.25
1772908151.6156847,9.938884013255677,0.4839118491745785,-9.594707249908213,-0.21847998003485325,-1.6041139813237537,9.728949270885128,0.006544984694978736,-0.004363323129985824,0.00545415391248228,8.5625,48.0625,-44.25
1772908151.6380992,9.938862988505914,0.48330564829203904,-9.587665787063376,-0.17550199149777843,-1.6261535905660112,9.746026310048062,-0.003272492347489368,-0.002181661564992912,0.001090830782496456,10.0625,47.0625,-45.5
1772908151.6715722,10.331906099817866,0.5029115787236511,-9.594257478433569,-0.20376751924637385,-1.6408207043181666,9.757390888847969,0.001090830782496456,0.003272492347489368,-0.001090830782496456,10.0625,47.0625,-45.5
1772908151.6970859,10.331906099817866,0.5029115787236511,-9.594257478433569,-0.20376751924637385,-1.6408207043181666,9.757390888847969,0.001090830782496456,0.003272492347489368,-0.001090830782496456,10.0625,47.0625,-45.5
1772908151.719701,10.683393367425289,0.5114688603748477,-9.59441627946379,-0.18243657172859792,-1.623820611019275,9.771644112503282,0.002181661564992912,-0.003272492347489368,-0.003272492347489368,10.0625,47.375,-45.0625
1772908151.7631888,10.753362763864383,0.5173451943306738,-9.594070693608357,-0.1849666229744117,-1.622542573954306,9.761058803383035,-0.002181661564992912,0.0,0.006544984694978736,10.0625,47.375,-45.0625
1772908151.7789803,10.752801721378589,0.524939825072784,-9.600453407194259,-0.18665034381597648,-1.6216920545641786,9.754014398409163,0.0,0.0,-0.002181661564992912,9.0,47.375,-43.5
1772908151.7997243,10.752801721378589,0.524939825072784,-9.600453407194259,-0.18665034381597648,-1.6216920545641786,9.754014398409163,0.0,0.0,-0.002181661564992912,9.0,47.375,-43.5
1772908151.8311808,11.012726480266627,0.5328290296765117,-9.600324271953749,-0.18777084122764368,-1.6345064902402504,9.74932642559021,0.0,0.002181661564992912,-0.002181661564992912,9.0,47.375,-43.5
1772908151.865612,11.3369770374205,0.5390609961620529,-9.60116753761197,-0.19186163144565135,-1.6430343540360504,9.749551743754605,-0.001090830782496456,-0.001090830782496456,0.006544984694978736,10.5,47.375,-46.25
1772908151.8880801,11.3369770374205,0.5390609961620529,-9.60116753761197,-0.19186163144565135,-1.6430343540360504,9.749551743754605,-0.001090830782496456,-0.001090830782496456,0.006544984694978736,10.5,47.375,-46.25
1772908151.9137042,11.385804042887425,0.5431861875096964,-9.600763869284242,-0.18789378322397574,-1.6487095521296748,9.74970169047604,-0.003272492347489368,-0.001090830782496456,-0.001090830782496456,10.5,47.375,-46.25
1772908151.9359403,11.4211942129119,0.5468110475102278,-9.607921440460196,-0.18525322455621948,-1.6457961096502265,9.759836813466098,0.0,-0.002181661564992912,0.002181661564992912,9.25,47.375,-44.375
1772908151.9600594,11.4211942129119,0.5468110475102278,-9.607921440460196,-0.18525322455621948,-1.6457961096502265,9.759836813466098,0.0,-0.002181661564992912,0.002181661564992912,9.25,47.375,-44.375
1772908151.980876,11.420609786590525,0.5537461438008239,-9.607226586234388,-0.18349596225980072,-1.6405121345181193,9.76658162459924,0.001090830782496456,-0.002181661564992912,0.0,9.25,47.375,-44.375
1772908152.0005276,11.518863574839772,0.5550674203730491,-9.607113276462782,-0.1823265238314401,-1.6369957080935715,9.77107022106387,-0.001090830782496456,-0.002181661564992912,0.002181661564992912,9.25,47.375,-44.375
1772908152.0153975,11.518863574839772,0.5550674203730491,-9.607113276462782,-0.1823265238314401,-1.6369957080935715,9.77107022106387,-0.001090830782496456,-0.002181661564992912,0.002181661564992912,9.25,47.375,-44.375
1772908152.0440192,11.518279262114994,0.5620016725192084,-9.606412526737918,-0.18154827562084933,-1.6413457890037308,9.764021996748214,0.003272492347489368,-0.002181661564992912,0.001090830782496456,9.6875,47.0625,-45.0625
1772908152.0642385,11.518279262114994,0.5620016725192084,-9.606412526737918,-0.17434013671566453,-1.6442407192558541,9.75933148219997,0.001090830782496456,-0.001090830782496456,0.0,9.6875,47.0625,-45.0625
1772908152.0765622,11.518279262114994,0.5620016725192084,-9.606412526737918,-0.17434013671566453,-1.6442407192558541,9.75933148219997,0.001090830782496456,-0.001090830782496456,0.0,9.6875,47.0625,-45.0625
1772908152.0926006,11.51769511848318,0.5689359328973808,-9.605711917824808,-0.16954320079445154,-1.6495123747074718,9.756209997164595,0.001090830782496456,0.002181661564992912,0.0,9.6875,47.0625,-45.0625
1772908152.1094487,11.560732699650439,0.5655185364101853,-9.606559007225744,-0.1663508935241696,-1.6530206025222733,9.754132683742824,-0.001090830782496456,0.0,0.002181661564992912,9.25,47.0625,-44.25
1772908152.149048,11.566557690353958,0.5737685320122512,-9.61233425816402,-0.1742617838181639,-1.6587004006508705,9.752750254865747,0.0,0.001090830782496456,-0.002181661564992912,9.25,47.0625,-44.25
1772908152.1665132,11.566557690353958,0.5737685320122512,-9.61233425816402,-0.1742617838181639,-1.6587004006508705,9.752750254865747,0.0,0.001090830782496456,-0.002181661564992912,9.25,47.0625,-44.25
1772908152.1788058,11.56597335646665,0.5807023796831827,-9.611630850835633,-0.17952639293838224,-1.6624802428579497,9.751830263890795,-0.001090830782496456,-0.001090830782496456,-0.001090830782496456,9.25,47.0625,-44.25
1772908152.1999257,11.707295203082996,0.5786156501011834,-9.612369394581165,-0.1796848197910309,-1.658305462208518,9.751218020173937,0.002181661564992912,0.003272492347489368,0.002181661564992912,10.0625,47.0625,-43.875
1772908152.218195,11.707295203082996,0.5786156501011834,-9.612369394581165,-0.1796848197910309,-1.658305462208518,9.751218020173937,0.002181661564992912,0.003272492347489368,0.002181661564992912,10.0625,47.0625,-43.875
1772908152.244275,11.706710870069575,0.585548649888605,-9.611657425867103,-0.1797902510917247,-1.6555271923216768,9.74412035540494,-0.001090830782496456,0.0,-0.001090830782496456,10.0625,47.0625,-43.875
1772908152.2737708,11.706710870069575,0.585548649888605,-9.611657425867103,-0.1797902510917247,-1.6555271923216768,9.74412035540494,-0.001090830782496456,0.0,-0.001090830782496456,10.0625,47.0625,-43.875
1772908152.2961328,11.819866987456034,0.5880255771324395,-9.612181666367444,-0.183205526151911,-1.6603685081619308,9.74943227390924,0.0,-0.001090830782496456,-0.001090830782496456,10.0625,47.375,-44.6875
1772908152.3141794,11.819866987456034,0.5880255771324395,-9.612181666367444,-0.183205526151911,-1.6603685081619308,9.74943227390924,0.0,-0.001090830782496456,-0.001090830782496456,10.0625,47.375,-44.6875
1772908152.338676,11.895786454781113,0.6021844692698416,-9.617600588984942,-0.18547835355334277,-1.6635903497725784,9.742931961213877,0.02181661564992912,-0.002181661564992912,-0.017453292519943295,10.0625,47.375,-44.6875
1772908152.3734236,12.107913027597315,0.6798750554036723,-9.581870887585321,-0.20037134162912754,-1.6055224386423865,9.748641410850322,0.022907446432425576,0.08726646259971647,0.055632369907319255,9.6875,47.75,-43.875
1772908152.3987215,12.009766422181134,0.6003504624925613,-9.710414612064362,-0.2169726822426235,-1.5668788924463133,10.143819055561012,-0.08399397025222712,-0.016362461737446838,-0.06217735460229799,9.6875,47.75,-43.875
1772908152.4181216,11.454196772104183,0.6025353896312933,-10.343243633774662,-0.22802068897177924,-1.3404553416903593,10.406805363692438,-0.35561083509384467,0.08508480103472356,-0.34470252726888007,9.6875,47.75,-43.875
1772908152.4457517,10.934941078870287,0.5215540444913387,-11.019253821051382,-0.6836179828165082,-1.835379557491703,10.297485318882204,-0.49414634447089456,0.006544984694978736,-0.5672320068981571,9.6875,48.0625,-43.5
1772908152.4676359,10.934941078870287,0.5215540444913387,-11.019253821051382,-0.6836179828165082,-1.835379557491703,10.297485318882204,-0.49414634447089456,0.006544984694978736,-0.5672320068981571,9.6875,48.0625,-43.5
1772908152.482546,9.28309451628154,0.4916080437032144,-11.74884967840798,-0.7526550730025771,-1.5191395349291115,10.224734050245909,-0.37960911230876665,0.19634954084936207,-1.036289243371633,9.6875,48.0625,-43.5
1772908152.5098636,7.652979147265257,0.4035919585465072,-12.834523888722684,-0.9390931770339918,-1.83721298230269,10.009063308287406,-0.6479534848028948,0.16253378659197193,-1.0417433972841155,9.6875,48.0625,-43.5
1772908152.533333,5.488932864082862,0.24809928606863552,-13.935737965652612,-1.063165652616815,-2.048887308416589,10.126455551884979,-0.6981317007977318,0.20180369476184434,-1.3068152774307542,9.6875,48.5,-44.25
1772908152.5607367,4.321950382692257,0.06630919881192616,-14.58099865598991,-1.1457344991368181,-2.20982487813215,9.943660065470967,-0.5137812985558308,0.1734420944169365,-1.3242685699506975,9.6875,48.5,-44.25
1772908152.580619,4.321950382692257,0.06630919881192616,-14.58099865598991,-1.1457344991368181,-2.20982487813215,9.943660065470967,-0.5137812985558308,0.1734420944169365,-1.3242685699506975,9.6875,48.5,-44.25
1772908152.6029813,2.4441586003672118,-0.12717481167658223,-15.122397349354792,-0.49151946218972,-2.3202721446947248,9.55774788634359,-0.2650718801466388,0.18544123302439752,-1.0199267816341864,9.6875,48.5,-44.25
1772908152.6321146,0.8079859883186031,-0.30483576900370846,-14.69543182719156,0.09772847537445772,-2.4372600190104623,9.21395473766552,0.29670597283903605,0.08835729338221293,-0.6774059159302992,7.75,49.5,-44.25
1772908152.660358,0.021314462046917768,-0.363664338183115,-13.311488565109414,0.48986639549266225,-2.5318397010639986,8.761041753250973,1.004655150679236,0.07526732399225546,-0.4439681284760576,7.75,49.5,-44.25
1772908152.682443,-0.5114283548699498,-0.4195703177561044,-12.022556217830989,0.6002997740343665,-2.5981265346536713,8.459633221492632,1.1999138607461015,0.0545415391248228,-0.49632800603588745,7.75,49.5,-44.25
1772908152.7028394,-1.1178060459678039,-0.4469768087861606,-10.509006831378866,0.30248455431975035,-2.63889457022783,8.449720577878573,1.4180800172453927,0.08617563181722002,-0.5475970528132209,6.6875,48.375,-43.75
1772908152.723362,-1.714622839253373,-0.40487777365919086,-9.216208272259946,-0.07299906807426743,-2.669370354200955,8.540132063797163,0.8508480103472357,0.13853550937704992,-0.4788747135159442,6.6875,48.375,-43.75
1772908152.7373233,-2.7791552641056376,-0.6044522177956808,-9.27244634860551,-0.3697107882530646,-2.8836681270227804,8.600299897713512,0.09490227807719166,-0.12217304763960307,-0.6959500392327389,6.6875,48.375,-43.75
1772908152.7623417,-2.7791552641056376,-0.6044522177956808,-9.27244634860551,-0.3697107882530646,-2.8836681270227804,8.600299897713512,0.09490227807719166,-0.12217304763960307,-0.6959500392327389,6.6875,48.375,-43.75
1772908152.7765346,-3.594760925384201,-0.8422618150575115,-9.367784016198883,-0.567169123544965,-3.02628090097273,9.396336164920278,-0.22252947962927702,-0.27052603405912107,-0.7144941625351786,5.875,46.0625,-43.75
1772908152.788778,-4.264820674366996,-0.8024206324284573,-9.457685676991463,-0.5212845194396648,-2.800057385044692,9.116572375267337,-0.014180800172453928,0.028361600344907856,-0.4526947747360292,5.875,46.0625,-43.75
1772908152.8006558,-4.264820674366996,-0.8024206324284573,-9.457685676991463,-0.5212845194396648,-2.800057385044692,9.116572375267337,-0.014180800172453928,0.028361600344907856,-0.4526947747360292,5.875,46.0625,-43.75
1772908152.8148675,-4.701615079216975,-0.873609067740344,-9.453462041165762,-0.49074882797220015,-2.515703693984062,8.930392698419604,-0.025089107997418487,0.038179077387375956,-0.5443245604657315,5.875,46.0625,-43.75
1772908152.8509283,-6.006035050774382,-0.9024436135310486,-9.411557596286636,-0.6878599273823863,-2.4602739573148464,8.676032846655245,0.02181661564992912,0.06544984694978735,-0.8933904108645975,4.75,44.5625,-43.5
1772908152.8725858,-7.892467457339103,-0.9655996685105827,-9.387917848549131,-1.073263651920885,-2.289581618459438,8.506759206691783,-0.003272492347489368,0.19962203319685143,-1.2075496762235767,4.75,44.5625,-43.5
1772908152.8885415,-7.892467457339103,-0.9655996685105827,-9.387917848549131,-1.073263651920885,-2.289581618459438,8.506759206691783,-0.003272492347489368,0.19962203319685143,-1.2075496762235767,4.75,44.5625,-43.5
1772908152.918086,-10.763465020139801,-1.1677234476383056,-9.307719578420862,-1.3297455253595607,-2.1191208746850956,8.604851527767677,-0.022907446432425576,0.09272061651219876,-1.3122694313432366,5.375,44.5,-44.25
1772908152.9420931,-12.464752997376001,-1.334782384698643,-9.230048811480339,-0.975248808993601,-1.9120180260696025,8.813970675095394,0.044724062082354694,0.039269908169872414,-0.8497571795647392,5.375,44.5,-44.25
1772908152.9543025,-13.030131566655298,-1.4166196937430593,-9.169605431980447,0.2675434196632883,-1.7741933938063974,8.996623583823204,0.05126904677733343,0.01090830782496456,-0.6239552075879728,5.375,44.5,-44.25
1772908152.9704125,-13.030131566655298,-1.4166196937430593,-9.169605431980447,0.2675434196632883,-1.7741933938063974,8.996623583823204,0.05126904677733343,0.01090830782496456,-0.6239552075879728,5.375,44.5,-44.25
1772908152.9873693,-13.159357788705867,-1.3880899859400613,-9.136948755136473,1.0946077649356067,-1.60553507136891,9.151628171288074,0.037088246604879506,0.06217735460229799,-0.018544123302439753,3.5625,43.375,-43.5
1772908153.004872,-12.908529037408902,-1.3485242237747668,-9.092857185751205,1.5647271668245724,-1.245756575482037,9.432072913219177,0.05235987755982989,-0.02399827721492203,0.2912518189265537,3.5625,43.375,-43.5
1772908153.0273032,-12.502743874301084,-1.2961188732168496,-9.10654809960364,0.767009290373826,-1.0063280054584578,9.575219304006138,-0.009817477042468103,0.003272492347489368,0.2519819107566813,3.5625,43.375,-43.5
1772908153.0503142,-12.502743874301084,-1.2961188732168496,-9.10654809960364,0.767009290373826,-1.0063280054584578,9.575219304006138,-0.009817477042468103,0.003272492347489368,0.2519819107566813,3.5625,43.375,-43.5
1772908153.065375,-12.423145753903107,-1.3222609896182107,-9.146447032004623,0.23613695468841478,-1.1447059086515652,9.6704816280249,-0.028361600344907856,-0.026179938779914945,0.02945243112740431,3.1875,42.875,-44.6875
1772908153.0773966,-12.423145753903107,-1.3222609896182107,-9.146447032004623,0.23613695468841478,-1.1447059086515652,9.6704816280249,-0.028361600344907856,-0.026179938779914945,0.02945243112740431,3.1875,42.875,-44.6875
1772908153.089322,-12.437862176324073,-1.3172176915322864,-9.154176628099858,0.03672248405902065,-1.37394443744421,9.546551384899617,-0.011999138607461015,0.00545415391248228,-0.020725784867432664,3.1875,42.875,-44.6875
1772908153.1067472,-12.486836115572258,-1.3196144417731548,-9.139443377164774,-0.0725698365880094,-1.5265001175935602,9.464077192491265,0.02945243112740431,0.01090830782496456,-0.05345070834232634,3.1875,42.875,-44.6875
1772908153.1250143,-12.515303924734878,-1.3187997257723112,-9.111281150579263,-0.13526731998143288,-1.5678122078425951,9.546341118740697,0.006544984694978736,-0.004363323129985824,-0.01090830782496456,3.1875,42.875,-44.25
1772908153.1600425,-12.515303924734878,-1.3187997257723112,-9.111281150579263,-0.13526731998143288,-1.5678122078425951,9.546341118740697,0.006544984694978736,-0.004363323129985824,-0.01090830782496456,3.1875,42.875,-44.25
1772908153.1806877,-12.515285166308582,-1.3195661907656722,-9.118302529210982,-0.1401955660224628,-1.5953049424170418,9.661298853443174,-0.006544984694978736,0.007635815477475192,0.008726646259971648,3.1875,42.875,-44.25
1772908153.1963184,-12.515285166308582,-1.3195661907656722,-9.118302529210982,-0.1401955660224628,-1.5953049424170418,9.661298853443174,-0.006544984694978736,0.007635815477475192,0.008726646259971648,3.1875,42.875,-44.25
1772908153.2116897,-12.473405462847442,-1.317744182167799,-9.133014758842936,-0.14347525871065275,-1.6169461618696874,9.677589930993886,-0.003272492347489368,-0.004363323129985824,0.02399827721492203,3.1875,42.875,-44.25
1772908153.2280567,-12.473405462847442,-1.317744182167799,-9.133014758842936,-0.14347525871065275,-1.6169461618696874,9.677589930993886,-0.003272492347489368,-0.004363323129985824,0.02399827721492203,3.1875,42.875,-44.25
1772908153.2471125,-12.488985136968633,-1.2926550834418649,-9.149462060051942,-0.15569319268003345,-1.651418821911078,9.671705902584026,0.0,0.002181661564992912,-0.014180800172453928,2.6875,42.75,-44.25
1772908153.2646236,-12.487319846653882,-1.222782912594917,-9.15697623582162,-0.16382409125339112,-1.6743599920837788,9.66779014740617,0.006544984694978736,-0.003272492347489368,0.002181661564992912,2.6875,42.75,-44.25
1772908153.282455,-12.487319846653882,-1.222782912594917,-9.15697623582162,-0.16382409125339112,-1.6743599920837788,9.66779014740617,0.006544984694978736,-0.003272492347489368,0.002181661564992912,2.6875,42.75,-44.25
1772908153.296476,-12.487319846653882,-1.222782912594917,-9.15697623582162,-0.16923511342587225,-1.6227248504176612,9.712015819979628,-0.00545415391248228,0.001090830782496456,0.007635815477475192,2.6875,42.75,-44.25
1772908153.3163998,0.003473981372529667,-1.1745302435403855,-9.169744606074214,0.17798290400862724,-1.5874331116191456,9.741447511044132,-0.0056824988825972065,-0.004610340255465303,0.001090830782496456,-6.885218107840627,41.49284602925501,-45.875
1772908153.604222,7.534915501766062,-0.6355642441431245,-9.314913359348477,0.19096447787328166,-1.6477067695471723,9.735974353983853,0.000829143759488421,0.0013009013099328742,-0.002181661564992912,-5.7991230283493005,43.52579892548865,-44.25
1772908153.9973593,13.204562771089812,-0.2640111701709573,-9.384306401493538,0.19737713265235673,-1.6350861089741089,9.740364455802347,-0.0004717575504444532,0.002130045069421295,0.0,-7.209574706967394,42.9573571410609,-44.25
1772908154.011345,13.204562771089812,-0.2640111701709573,-9.384306401493538,0.19737713265235673,-1.6350861089741089,9.740364455802347,-0.0004717575504444532,0.002130045069421295,0.0,-7.209574706967394,42.9573571410609,-44.25
1772908154.0366547,13.70708280137485,-0.22963708744410585,-9.39961283300435,0.19844777171273476,-1.638589829572025,9.740242541265223,0.0,0.0,0.001090830782496456,-6.165250806300772,43.444709775706954,-45.0625
1772908154.0735958,14.153831598471916,-0.19992709807203635,-9.400649337397121,0.19916027004759437,-1.6409215164908144,9.743506520209962,0.0013009013099328742,-0.0008291437594884211,0.0,-6.165250806300772,43.444709775706954,-45.0625
1772908154.2096598,14.598286431056179,-0.14207374871378423,-9.414876149384169,0.20035776910170572,-1.6457391969323536,9.742333550029333,0.0010650225347106476,0.0002358787752222266,-0.002181661564992912,-5.806084891486751,43.26819888189072,-45.0625
1772908154.2402778,15.162482858530167,-0.08827144074636055,-9.429413070942278,0.2011546913452759,-1.648945309449181,9.74155295147706,-0.0010650225347106476,-0.0002358787752222266,0.0,-5.5017961458164315,42.183330406333255,-44.6875
1772908154.2893236,15.162482858530167,-0.08827144074636055,-9.429413070942278,0.2009616948247769,-1.6478129726707722,9.73768836015306,0.0,0.0,-0.001090830782496456,-5.5017961458164315,42.183330406333255,-44.6875
1772908154.3457325,15.606497653821698,-0.023399796250338004,-9.436112741404,0.20010991842490705,-1.6437934463500374,9.73846162950457,0.0018941662941990686,0.0015367800851551008,-0.001090830782496456,-5.7991230283493005,43.52579892548865,-44.6875
1772908154.387991,15.659924399984257,0.00926532657674992,-9.442192447055163,0.20353237896088383,-1.6436611259569835,9.742321343327335,0.0015367800851551008,-0.0018941662941990688,-0.002181661564992912,-5.7991230283493005,43.52579892548865,-44.6875
1772908154.417959,15.659924399984257,0.00926532657674992,-9.442192447055163,0.20353237896088383,-1.6436611259569835,9.742321343327335,0.0015367800851551008,-0.0018941662941990688,-0.002181661564992912,-5.7991230283493005,43.52579892548865,-44.6875
1772908154.5177681,15.873201978239551,0.06236860181889479,-9.455128925617863,0.1986203082633181,-1.6454425197831275,9.743254200286444,0.0002358787752222266,-0.0010650225347106476,-0.001090830782496456,-6.043617081628235,42.89551810877975,-45.5
1772908154.5490072,15.873201978239551,0.06236860181889479,-9.455128925617863,0.1986203082633181,-1.6454425197831275,9.743254200286444,0.0002358787752222266,-0.0010650225347106476,-0.001090830782496456,-6.043617081628235,42.89551810877975,-45.5
1772908154.630927,15.934732677608295,0.08169656784885494,-9.46148726738741,0.19673246172230408,-1.649471213491862,9.742165633938829,-0.0002358787752222266,0.0010650225347106476,-0.001090830782496456,-6.348723563254461,42.82794381729501,-45.5
1772908154.6674833,16.037120633657405,0.1184491095837426,-9.467826571823016,0.19801875041023087,-1.6481629559364432,9.738096093487256,-0.0002358787752222266,0.0010650225347106476,-0.001090830782496456,-6.348723563254461,42.82794381729501,-45.5
1772908154.6980243,16.03536423458836,0.13956522887835862,-9.474148170557577,0.19959810053465016,-1.6505582939912404,9.73204274806916,-0.0015367800851551008,0.0018941662941990688,0.001090830782496456,-7.142000415482651,42.65225065943468,-43.875
1772908154.732039,16.03536423458836,0.13956522887835862,-9.474148170557577,0.19959810053465016,-1.6505582939912404,9.73204274806916,-0.0015367800851551008,0.0018941662941990688,0.001090830782496456,-7.142000415482651,42.65225065943468,-43.875
1772908154.785902,16.048721111266627,0.14768625746568279,-9.473879470270978,0.19665983218483002,-1.649609735236685,9.728014314313716,-0.0010650225347106476,-0.0002358787752222266,-0.001090830782496456,-7.142000415482651,42.65225065943468,-43.875
1772908154.8195457,16.11662949048221,0.17457599894285838,-9.479913704296369,0.19542778679202302,-1.652244448825358,9.73202366006466,0.0,0.0,-0.001090830782496456,-6.1111913731129786,43.20062459040598,-44.25
1772908154.8539202,16.129408132116133,0.18966369008225212,-9.479414628538192,0.1978738431896929,-1.6532744819155505,9.734691834874587,0.0,0.0,0.001090830782496456,-6.1111913731129786,43.20062459040598,-44.25
1772908154.877006,16.135189452218405,0.20439473545201295,-9.4859095594921,0.19950166639810185,-1.65395995743085,9.739812587112446,-0.0002358787752222266,0.0010650225347106476,0.001090830782496456,-6.782425632690677,43.051961149139544,-45.5
1772908154.90799,16.13483255963124,0.21139244041760924,-9.48626645207926,0.1973189957155872,-1.6551394731004085,9.74656550223151,-0.0013009013099328742,0.0008291437594884211,0.001090830782496456,-6.782425632690677,43.051961149139544,-45.5
1772908154.9350195,16.13483255963124,0.21139244041760924,-9.48626645207926,0.1973189957155872,-1.6551394731004085,9.74656550223151,-0.0013009013099328742,0.0008291437594884211,0.001090830782496456,-6.782425632690677,43.051961149139544,-45.5
1772908154.9721198,16.1336451967121,0.2255467701671715,-9.49279205682299,0.19586645275840278,-1.6559244276024467,9.751059491808244,0.0010650225347106476,0.0002358787752222266,0.0,-6.836485065878471,43.296046334440526,-45.0625
1772908154.9998062,16.251500131103974,0.24233850474648125,-9.492008179173741,0.19489980164636456,-1.6564468060550366,9.744014856548448,-0.0026018026198657484,0.0016582875189768422,0.001090830782496456,-6.836485065878471,43.296046334440526,-45.0625
1772908155.0170643,16.251500131103974,0.24233850474648125,-9.492008179173741,0.19489980164636456,-1.6564468060550366,9.744014856548448,-0.0026018026198657484,0.0016582875189768422,0.001090830782496456,-6.836485065878471,43.296046334440526,-45.0625
1772908155.0637095,16.271821394196046,0.2510383933264147,-9.491677791888455,0.19752247497323766,-1.6560711037084952,9.739326730476787,0.0002358787752222266,-0.0010650225347106476,0.0,-6.348723563254461,42.82794381729501,-44.25
1772908155.0881863,16.270630548579252,0.2651996299185385,-9.498186578160942,0.19926783477509105,-1.6558210779937423,9.739551946653215,-0.0010650225347106476,-0.0002358787752222266,0.0,-6.348723563254461,42.82794381729501,-44.25
1772908155.1100433,16.312658960620965,0.26870436682170046,-9.49855212393987,0.20042935222627803,-1.6556546886735444,9.746392048917437,-0.0005932649842661944,-0.002365923844643522,-0.001090830782496456,-6.043617081628235,42.89551810877975,-43.875
1772908155.1360867,16.312658960620965,0.26870436682170046,-9.49855212393987,0.20042935222627803,-1.6556546886735444,9.746392048917437,-0.0005932649842661944,-0.002365923844643522,-0.001090830782496456,-6.043617081628235,42.89551810877975,-43.875
1772908155.1501656,16.318469077781202,0.28321546044578205,-9.4980532559209,0.2004789897436527,-1.6522779895959092,9.747598948858009,-0.000829143759488421,-0.0013009013099328742,0.003272492347489368,-6.043617081628235,42.89551810877975,-43.875
1772908155.1646876,16.353879489214595,0.2791399182707435,-9.498103180136766,0.19978868358558793,-1.6467648652362088,9.748402127286504,-0.0010650225347106476,-0.0002358787752222266,0.001090830782496456,-6.043617081628235,42.89551810877975,-43.875
1772908155.1789818,16.353879489214595,0.2791399182707435,-9.498103180136766,0.19978868358558793,-1.6467648652362088,9.748402127286504,-0.0010650225347106476,-0.0002358787752222266,0.001090830782496456,-6.043617081628235,42.89551810877975,-43.875
1772908155.206819,16.353879489214595,0.2791399182707435,-9.498103180136766,0.19678666307627693,-1.647085250775587,9.748936633558577,-0.0002358787752222266,0.0010650225347106476,0.001090830782496456,-6.1111913731129786,43.20062459040598,-45.5
1772908155.2241516,16.353879489214595,0.2791399182707435,-9.498103180136766,0.19805482080583098,-1.6465751244017122,9.745947229804495,0.0002358787752222266,-0.0010650225347106476,0.001090830782496456,-6.1111913731129786,43.20062459040598,-45.5
1772908155.2504077,16.353879489214595,0.2791399182707435,-9.498103180136766,0.1963561361362552,-1.6502249492135077,9.743957814999982,-0.0010650225347106476,-0.0002358787752222266,0.001090830782496456,-6.1111913731129786,43.20062459040598,-45.5
1772908155.264175,16.353879489214595,0.2791399182707435,-9.498103180136766,0.1963561361362552,-1.6502249492135077,9.743957814999982,-0.0010650225347106476,-0.0002358787752222266,0.001090830782496456,-6.1111913731129786,43.20062459040598,-45.5
1772908155.2906046,16.37477848697167,0.28087437197422815,-9.497993361966477,0.19450234109281342,-1.649387898010809,9.739288769963478,0.000829143759488421,0.0013009013099328742,-0.001090830782496456,-6.254119555175821,42.40079474301829,-45.875
1772908155.3091614,16.37477848697167,0.28087437197422815,-9.497993361966477,0.19450234109281342,-1.649387898010809,9.739288769963478,0.000829143759488421,0.0013009013099328742,-0.001090830782496456,-6.254119555175821,42.40079474301829,-45.875
1772908155.3325987,16.37477848697167,0.28087437197422815,-9.497993361966477,0.19326866119965044,-1.6488308497858875,9.736181572648336,-0.0004717575504444532,0.002130045069421295,-0.001090830782496456,-6.254119555175821,42.40079474301829,-45.875
1772908155.353846,16.37477848697167,0.28087437197422815,-9.497993361966477,0.19244766101185784,-1.6484601404148385,9.740803990959416,-0.0004717575504444532,0.002130045069421295,0.001090830782496456,-6.254119555175821,42.40079474301829,-45.875
1772908155.3673851,16.37477848697167,0.28087437197422815,-9.497993361966477,0.19190129455805485,-1.6482134374695006,9.747225270416962,0.0010650225347106476,0.0002358787752222266,0.0,-6.714851341205934,42.74685466751332,-43.5
1772908155.3832486,16.37477848697167,0.28087437197422815,-9.497993361966477,0.19190129455805485,-1.6482134374695006,9.747225270416962,0.0010650225347106476,0.0002358787752222266,0.0,-6.714851341205934,42.74685466751332,-43.5
1772908155.397119,16.37477848697167,0.28087437197422815,-9.497993361966477,0.19153769378636223,-1.6480492594152305,9.748153448458249,-0.0002358787752222266,0.0010650225347106476,-0.003272492347489368,-6.714851341205934,42.74685466751332,-43.5
1772908155.4129162,16.37477848697167,0.28087437197422815,-9.497993361966477,0.19153769378636223,-1.6480492594152305,9.748153448458249,-0.0002358787752222266,0.0010650225347106476,-0.003272492347489368,-6.714851341205934,42.74685466751332,-43.5
1772908155.4382966,16.37477848697167,0.28087437197422815,-9.497993361966477,0.19383835100683147,-1.6439506925389786,9.748771140576297,-0.0004717575504444532,0.002130045069421295,-0.001090830782496456,-6.714851341205934,42.74685466751332,-43.5
1772908155.475508,16.37477848697167,0.28087437197422815,-9.497993361966477,0.1953694126870287,-1.641223142066825,9.749182207780784,0.0,0.0,-0.002181661564992912,-5.949013073549595,42.468369034503034,-45.0625
1772908155.49898,16.37477848697167,0.28087437197422815,-9.497993361966477,0.19312234828838618,-1.640131327067732,9.74945576841345,0.0003573862090439678,0.00343094637935417,-0.002181661564992912,-5.949013073549595,42.468369034503034,-45.0625
1772908155.511532,16.37477848697167,0.28087437197422815,-9.497993361966477,0.19162695203244365,-1.6394047363822084,9.749637819958616,0.0015367800851551008,-0.0018941662941990688,0.002181661564992912,-5.949013073549595,42.468369034503034,-45.0625
1772908155.532996,16.37477848697167,0.28087437197422815,-9.497993361966477,0.19162695203244365,-1.6394047363822084,9.749637819958616,0.0015367800851551008,-0.0018941662941990688,0.002181661564992912,-5.949013073549595,42.468369034503034,-45.0625
1772908155.5553112,16.37477848697167,0.28087437197422815,-9.497993361966477,0.1918975613550815,-1.6473048127399306,9.749839599375862,0.0,0.0,0.0,-7.047396407404011,42.22510158515796,-45.875
1772908155.5750823,16.37477848697167,0.28087437197422815,-9.497993361966477,0.1918975613550815,-1.6473048127399306,9.749839599375862,0.0,0.0,0.0,-7.047396407404011,42.22510158515796,-45.875
1772908155.5977101,16.37477848697167,0.28087437197422815,-9.497993361966477,0.19225854875287618,-1.6507105486514393,9.73985792005447,-0.0005932649842661944,-0.002365923844643522,0.0,-7.047396407404011,42.22510158515796,-45.875
1772908155.6190062,16.37477848697167,0.28087437197422815,-9.497993361966477,0.19225854875287618,-1.6507105486514393,9.73985792005447,-0.0005932649842661944,-0.002365923844643522,0.0,-7.047396407404011,42.22510158515796,-45.875
1772908155.6593451,16.37477848697167,0.28087437197422815,-9.497993361966477,0.19024922697962734,-1.6436064751964257,9.739937076289866,-0.0005932649842661944,-0.002365923844643522,-0.001090830782496456,-5.949013073549595,42.468369034503034,-45.875
1772908155.6898742,16.37477848697167,0.28087437197422815,-9.497993361966477,0.1897149218963326,-1.6417174086419057,9.743303236681129,-0.0013009013099328742,0.0008291437594884211,0.002181661564992912,-6.1111913731129786,43.20062459040598,-45.0625
1772908155.7155855,16.37477848697167,0.28087437197422815,-9.497993361966477,0.1897149218963326,-1.6417174086419057,9.743303236681129,-0.0013009013099328742,0.0008291437594884211,0.002181661564992912,-6.1111913731129786,43.20062459040598,-45.0625
1772908155.7601001,16.37477848697167,0.28087437197422815,-9.497993361966477,0.19407199541849326,-1.646268854268207,9.748888490526358,-0.0005932649842661944,-0.002365923844643522,0.0,-6.1111913731129786,43.20062459040598,-45.0625
1772908155.793651,16.37477848697167,0.28087437197422815,-9.497993361966477,0.19043964148832254,-1.6507444692323117,9.752605414568984,0.0002358787752222266,-0.0010650225347106476,-0.001090830782496456,-6.836485065878471,43.296046334440526,-44.6875
1772908155.8232102,16.37477848697167,0.28087437197422815,-9.497993361966477,0.19043964148832254,-1.6507444692323117,9.752605414568984,0.0002358787752222266,-0.0010650225347106476,-0.001090830782496456,-6.836485065878471,43.296046334440526,-44.6875
1772908155.8625767,16.37477848697167,0.28087437197422815,-9.497993361966477,0.19656920027045954,-1.6500296845520321,9.75672512015339,0.0002358787752222266,-0.0010650225347106476,0.001090830782496456,-6.714851341205934,42.74685466751332,-44.6875
1772908155.8843234,16.37477848697167,0.28087437197422815,-9.497993361966477,0.19656920027045954,-1.6500296845520321,9.75672512015339,0.0002358787752222266,-0.0010650225347106476,0.001090830782496456,-6.714851341205934,42.74685466751332,-44.6875
1772908155.908698,16.37477848697167,0.28087437197422815,-9.497993361966477,0.20117607058151238,-1.647811272817066,9.754475492337567,0.0,0.0,0.001090830782496456,-6.714851341205934,42.74685466751332,-44.6875
1772908155.9363415,16.37477848697167,0.28087437197422815,-9.497993361966477,0.20424189131140472,-1.6463349445887285,9.756323501863445,0.0017726588603773274,-0.0029591888289097167,-0.001090830782496456,-5.949013073549595,42.468369034503034,-45.0625
1772908155.965506,16.37477848697167,0.28087437197422815,-9.497993361966477,0.20301619191595238,-1.646075804015827,9.757553331559297,0.0002358787752222266,-0.0010650225347106476,0.001090830782496456,-5.949013073549595,42.468369034503034,-45.0625
1772908155.990466,16.37477848697167,0.28087437197422815,-9.497993361966477,0.20301619191595238,-1.646075804015827,9.757553331559297,0.0002358787752222266,-0.0010650225347106476,0.001090830782496456,-5.949013073549595,42.468369034503034,-45.0625
1772908156.0064747,16.37477848697167,0.28087437197422815,-9.497993361966477,0.20220050266023823,-1.645903348859351,9.758371769483789,-0.0005932649842661944,-0.002365923844643522,-0.001090830782496456,-6.165250806300772,43.444709775706954,-44.6875
1772908156.025534,16.37477848697167,0.28087437197422815,-9.497993361966477,0.2016576705724065,-1.6457885818791664,9.758916430779989,-0.0002358787752222266,0.0010650225347106476,0.0,-6.165250806300772,43.444709775706954,-44.6875
1772908156.064525,16.37477848697167,0.28087437197422815,-9.497993361966477,0.2016576705724065,-1.6457885818791664,9.758916430779989,-0.0002358787752222266,0.0010650225347106476,0.0,-6.165250806300772,43.444709775706954,-44.6875
1772908156.1063793,16.37477848697167,0.28087437197422815,-9.497993361966477,0.2020197612531764,-1.648978174579619,9.759278896788343,0.0010650225347106476,0.0002358787752222266,0.0,-6.470357287926999,43.377135484222215,-45.0625
1772908156.1210194,16.37477848697167,0.28087437197422815,-9.497993361966477,0.20226072855641083,-1.6511008128916853,9.756175002160573,0.001658287518976842,0.0026018026198657484,0.001090830782496456,-6.470357287926999,43.377135484222215,-45.0625
1772908156.1519473,16.37477848697167,0.28087437197422815,-9.497993361966477,0.19915512076119804,-1.6532367443483318,9.750764283251248,0.0013009013099328742,-0.0008291437594884211,0.001090830782496456,-6.254119555175821,42.40079474301829,-45.0625
1772908156.1734428,16.37477848697167,0.28087437197422815,-9.497993361966477,0.19915512076119804,-1.6532367443483318,9.750764283251248,0.0013009013099328742,-0.0008291437594884211,0.001090830782496456,-6.254119555175821,42.40079474301829,-45.0625
1772908156.1934977,16.37477848697167,0.28087437197422815,-9.497993361966477,0.19963100293774008,-1.650668874657688,9.750508621966102,0.0002358787752222266,-0.0010650225347106476,0.0,-6.254119555175821,42.40079474301829,-45.0625
1772908156.209915,16.37477848697167,0.28087437197422815,-9.497993361966477,0.19668172836654246,-1.6496833254349388,9.746993370529442,-0.0004717575504444532,0.002130045069421295,-0.002181661564992912,-6.254119555175821,42.40079474301829,-45.0625
1772908156.23239,16.37477848697167,0.28087437197422815,-9.497993361966477,0.19668172836654246,-1.6496833254349388,9.746993370529442,-0.0004717575504444532,0.002130045069421295,-0.002181661564992912,-6.254119555175821,42.40079474301829,-45.0625
1772908156.251385,16.37477848697167,0.28087437197422815,-9.497993361966477,0.1987083273000904,-1.6515700829088493,9.744654009966276,0.0002358787752222266,-0.0010650225347106476,0.0,-5.745063595161506,43.28171374018767,-45.5
1772908156.2851326,16.37477848697167,0.28087437197422815,-9.497993361966477,0.2000570062517731,-1.6528256989312748,9.739752079936538,-0.0013009013099328742,0.0008291437594884211,-0.001090830782496456,-5.745063595161506,43.28171374018767,-45.5
1772908156.3212128,16.37477848697167,0.28087437197422815,-9.497993361966477,0.2009545370283869,-1.653661297368049,9.739835011967214,0.0003573862090439678,0.00343094637935417,-0.001090830782496456,-7.332435035573791,41.77788465742479,-45.0625
1772908156.3385065,16.37477848697167,0.28087437197422815,-9.497993361966477,0.20155183373414767,-1.654217378793476,9.739890202307219,-0.0002358787752222266,0.0010650225347106476,0.0,-7.332435035573791,41.77788465742479,-45.0625
1772908156.393188,16.37477848697167,0.28087437197422815,-9.497993361966477,0.20194932801959006,-1.654587444770261,9.743272042569295,0.0002358787752222266,-0.0010650225347106476,0.0,-6.17303040539413,42.03466696506682,-45.0625
1772908156.4169698,16.37477848697167,0.28087437197422815,-9.497993361966477,0.2014905166548597,-1.6515677507001696,9.745522619486074,0.0003573862090439678,0.00343094637935417,0.002181661564992912,-6.17303040539413,42.03466696506682,-45.0625
1772908156.4327624,16.37477848697167,0.28087437197422815,-9.497993361966477,0.2014905166548597,-1.6515677507001696,9.745522619486074,0.0003573862090439678,0.00343094637935417,0.002181661564992912,-6.17303040539413,42.03466696506682,-45.0625
1772908156.4544706,16.37477848697167,0.28087437197422815,-9.497993361966477,0.2011851828168904,-1.6495581780287167,9.7470203532836,-0.0007076363256666798,0.003195067604131943,-0.001090830782496456,-6.17303040539413,42.03466696506682,-45.0625
1772908156.4714675,16.37477848697167,0.28087437197422815,-9.497993361966477,0.2009819865585243,-1.6482208298642624,9.74801707839507,-0.0015367800851551008,0.0018941662941990688,-0.001090830782496456,-7.142000415482651,42.65225065943468,-44.6875
1772908156.4907186,16.37477848697167,0.28087437197422815,-9.497993361966477,0.2008467617184326,-1.647330839599976,9.748680387822604,0.0,0.0,0.0,-7.142000415482651,42.65225065943468,-44.6875
1772908156.506764,16.37477848697167,0.28087437197422815,-9.497993361966477,0.1967674628827877,-1.6441959315485921,9.749121812836977,0.0,0.0,0.002181661564992912,-7.142000415482651,42.65225065943468,-44.6875
1772908156.526459,16.37477848697167,0.28087437197422815,-9.497993361966477,0.1967674628827877,-1.6441959315485921,9.749121812836977,0.0,0.0,0.002181661564992912,-7.142000415482651,42.65225065943468,-44.6875
1772908156.5495243,16.37477848697167,0.28087437197422815,-9.497993361966477,0.19731870392015396,-1.6413863458882234,9.749415576253002,0.0002358787752222266,-0.0010650225347106476,0.0,-6.348723563254461,42.82794381729501,-45.0625
1772908156.5656877,16.37477848697167,0.28087437197422815,-9.497993361966477,0.19514291920041135,-1.6435059062315005,9.746265960817494,0.0013009013099328742,-0.0008291437594884211,0.0,-6.348723563254461,42.82794381729501,-45.0625
1772908156.58043,16.37477848697167,0.28087437197422815,-9.497993361966477,0.19768426698965486,-1.647459079435255,9.747515038635994,-0.0010650225347106476,-0.0002358787752222266,0.001090830782496456,-6.348723563254461,42.82794381729501,-45.0625
1772908156.5935926,16.37477848697167,0.28087437197422815,-9.497993361966477,0.19768426698965486,-1.647459079435255,9.747515038635994,-0.0010650225347106476,-0.0002358787752222266,0.001090830782496456,-6.348723563254461,42.82794381729501,-45.0625
1772908156.6068957,16.37477848697167,0.28087437197422815,-9.497993361966477,0.19865216618329132,-1.6468239031987815,9.745001174263772,0.000829143759488421,0.0013009013099328742,-0.001090830782496456,-6.620247333127294,42.3197055932366,-44.25
1772908156.6221485,16.37477848697167,0.28087437197422815,-9.497993361966477,0.19865216618329132,-1.6468239031987815,9.745001174263772,0.000829143759488421,0.0013009013099328742,-0.001090830782496456,-6.620247333127294,42.3197055932366,-44.25
1772908156.6414897,16.37477848697167,0.28087437197422815,-9.497993361966477,0.1985729529131238,-1.6431352316650578,9.746673337313082,0.0002358787752222266,-0.0010650225347106476,-0.001090830782496456,-6.620247333127294,42.3197055932366,-44.25
1772908156.667282,16.37477848697167,0.28087437197422815,-9.497993361966477,0.1985202373666975,-1.6406804619645254,9.747786143143113,0.0,0.0,0.0,-5.786834773986212,41.73611347860009,-44.25
1772908156.6856046,16.37477848697167,0.28087437197422815,-9.497993361966477,0.19848515575942202,-1.6390468401503955,9.748526702992143,-0.000829143759488421,-0.0013009013099328742,0.0,-5.786834773986212,41.73611347860009,-44.25
1772908156.7037575,16.37477848697167,0.28087437197422815,-9.497993361966477,0.19848515575942202,-1.6390468401503955,9.748526702992143,-0.000829143759488421,-0.0013009013099328742,0.0,-5.786834773986212,41.73611347860009,-44.25
1772908156.7340026,16.37477848697167,0.28087437197422815,-9.497993361966477,0.19990848808444775,-1.6444916207693117,9.749019537299077,-0.0010650225347106476,-0.0002358787752222266,0.0,-5.786834773986212,41.73611347860009,-44.25
1772908156.7499316,16.37477848697167,0.28087437197422815,-9.497993361966477,0.2008556998470885,-1.6481150614490154,9.746002401317702,0.0010650225347106476,0.0002358787752222266,-0.002181661564992912,-6.043617081628235,42.89551810877975,-44.6875
1772908156.76335,16.37477848697167,0.28087437197422815,-9.497993361966477,0.2007627193226871,-1.6472604519011398,9.747339642733033,-0.000829143759488421,-0.0013009013099328742,0.0,-6.043617081628235,42.89551810877975,-44.6875
1772908156.783432,16.37477848697167,0.28087437197422815,-9.497993361966477,0.2007627193226871,-1.6472604519011398,9.747339642733033,-0.000829143759488421,-0.0013009013099328742,0.0,-6.043617081628235,42.89551810877975,-44.6875
1772908156.8155355,16.37477848697167,0.28087437197422815,-9.497993361966477,0.20070084182235848,-1.6466917187936427,9.748229561956972,-0.0013009013099328742,0.0008291437594884211,0.0,-6.043617081628235,42.89551810877975,-44.6875
1772908156.8376298,16.37477848697167,0.28087437197422815,-9.497993361966477,0.2013830024084969,-1.6495792021075026,9.748821793259454,0.0010650225347106476,0.0002358787752222266,0.0,-6.165250806300772,43.444709775706954,-44.6875
1772908156.8594408,16.37477848697167,0.28087437197422815,-9.497993361966477,0.19602837434226086,-1.6562134375840887,9.749215916575599,0.029127460693734356,-0.13655876321818514,-0.001090830782496456,-6.165250806300772,43.444709775706954,-44.6875
1772908156.8810089,16.37477848697167,0.28087437197422815,-9.497993361966477,0.19174158980790534,-1.6573624783407563,9.749478201239846,0.000829143759488421,0.0013009013099328742,-0.001090830782496456,-6.165250806300772,43.444709775706954,-44.6875
1772908156.920139,16.37477848697167,0.28087437197422815,-9.497993361966477,0.1907080726877665,-1.6508718750698341,9.752997860461312,-0.00012150743382174123,-0.004495968914064817,0.002181661564992912,-6.043617081628235,42.89551810877975,-44.6875
1772908156.9511936,16.37477848697167,0.28087437197422815,-9.497993361966477,0.1900202785894568,-1.6465524510978247,9.755340154356027,-0.0018941662941990686,-0.0015367800851551008,0.0,-6.043617081628235,42.89551810877975,-44.6875
1772908156.9782495,16.37477848697167,0.28087437197422815,-9.497993361966477,0.19028589867158532,-1.6469438915393138,9.753553813070504,-0.0010650225347106476,-0.0002358787752222266,-0.001090830782496456,-6.043617081628235,42.89551810877975,-44.6875
1772908157.0125535,16.37477848697167,0.28087437197422815,-9.497993361966477,0.19046266586907112,-1.6472043907804486,9.752365022899728,-0.0018941662941990686,-0.0015367800851551008,-0.002181661564992912,-7.142000415482651,42.65225065943468,-44.6875
1772908157.0376,16.37477848697167,0.28087437197422815,-9.497993361966477,0.19046266586907112,-1.6472043907804486,9.752365022899728,-0.0018941662941990686,-0.0015367800851551008,-0.002181661564992912,-7.142000415482651,42.65225065943468,-44.6875
1772908157.0627246,16.37477848697167,0.28087437197422815,-9.497993361966477,0.1938462713081131,-1.6466544107440662,9.748228784613412,0.0002358787752222266,-0.0010650225347106476,0.0,-7.142000415482651,42.65225065943468,-44.6875
1772908157.0834582,16.37477848697167,0.28087437197422815,-9.497993361966477,0.19609802293044615,-1.6462884051735334,9.745476164238678,-0.0010650225347106476,-0.0002358787752222266,0.001090830782496456,-7.575702484918866,42.87626799127921,-43.875
1772908157.101753,16.37477848697167,0.28087437197422815,-9.497993361966477,0.19433056963766096,-1.646768171926284,9.743644326128077,0.0002358787752222266,-0.0010650225347106476,0.0,-7.575702484918866,42.87626799127921,-43.875
1772908157.1301465,16.37477848697167,0.28087437197422815,-9.497993361966477,0.19315434921505936,-1.6470874513408942,9.742425258328446,0.0004717575504444532,-0.002130045069421295,0.0,-7.575702484918866,42.87626799127921,-43.875
1772908157.1447194,16.37477848697167,0.28087437197422815,-9.497993361966477,0.19315434921505936,-1.6470874513408942,9.742425258328446,0.0004717575504444532,-0.002130045069421295,0.0,-7.575702484918866,42.87626799127921,-43.875
1772908157.1651657,16.37477848697167,0.28087437197422815,-9.497993361966477,0.19563755650679515,-1.646576588853342,9.74161398232567,0.0010650225347106476,0.0002358787752222266,-0.001090830782496456,-6.620247333127294,42.3197055932366,2002.5
1772908157.1815512,16.37477848697167,0.28087437197422815,-9.497993361966477,0.1972901032202023,-1.646236615574584,9.747764310623008,0.0010650225347106476,0.0002358787752222266,0.001090830782496456,-6.620247333127294,42.3197055932366,2002.5
1772908157.1976821,16.37477848697167,0.28087437197422815,-9.497993361966477,0.19838985459781844,-1.6460103671553208,9.751857285401218,0.0010650225347106476,0.0002358787752222266,0.0,-6.620247333127294,42.3197055932366,2002.5
1772908157.2278788,16.37477848697167,0.28087437197422815,-9.497993361966477,0.19839838748320396,-1.6425938325159277,9.754581114394593,-0.0002358787752222266,0.0010650225347106476,0.001090830782496456,-6.620247333127294,42.3197055932366,-45.0625
1772908157.2673204,16.37477848697167,0.28087437197422815,-9.497993361966477,0.19840406602310942,-1.640320166878604,9.753048680455201,-0.0005932649842661944,-0.002365923844643522,-0.001090830782496456,-6.620247333127294,42.3197055932366,-45.0625
1772908157.2972512,16.37477848697167,0.28087437197422815,-9.497993361966477,0.19840406602310942,-1.640320166878604,9.753048680455201,-0.0005932649842661944,-0.002365923844643522,-0.001090830782496456,-6.620247333127294,42.3197055932366,-45.0625
1772908157.321749,16.37477848697167,0.28087437197422815,-9.497993361966477,0.1984078450279831,-1.6388070677954745,9.752028862786945,0.0002358787752222266,-0.0010650225347106476,-0.001090830782496456,-6.620247333127294,42.3197055932366,-44.6875
1772908157.3456366,16.37477848697167,0.28087437197422815,-9.497993361966477,0.1958677304411683,-1.6417894254732004,9.75135018552083,0.0017726588603773274,-0.0029591888289097167,0.001090830782496456,-6.620247333127294,42.3197055932366,-44.6875
1772908157.3614337,16.37477848697167,0.28087437197422815,-9.497993361966477,0.19744328140231635,-1.6430508118212188,9.750898533381552,0.0002358787752222266,-0.0010650225347106476,0.001090830782496456,-6.620247333127294,42.3197055932366,-44.6875
1772908157.3794258,16.37477848697167,0.28087437197422815,-9.497993361966477,0.19744328140231635,-1.6430508118212188,9.750898533381552,0.0002358787752222266,-0.0010650225347106476,0.001090830782496456,-6.620247333127294,42.3197055932366,-44.6875
1772908157.3960493,16.37477848697167,0.28087437197422815,-9.497993361966477,0.20175776181063704,-1.6431669109738258,9.750597963928147,-0.000829143759488421,-0.0013009013099328742,0.0,-5.582885295598123,42.549458184284724,-45.0625
1772908157.4111705,16.37477848697167,0.28087437197422815,-9.497993361966477,0.2046290003264704,-1.6432441736629735,9.750397938314487,0.0002358787752222266,-0.0010650225347106476,0.002181661564992912,-5.582885295598123,42.549458184284724,-45.0625
1772908157.448856,16.37477848697167,0.28087437197422815,-9.497993361966477,0.2046290003264704,-1.6432441736629735,9.750397938314487,0.0002358787752222266,-0.0010650225347106476,0.002181661564992912,-5.582885295598123,42.549458184284724,-45.0625
1772908157.4829988,16.37477848697167,0.28087437197422815,-9.497993361966477,0.20327380864118752,-1.6440189304909105,9.753609935210347,-0.0002358787752222266,0.0010650225347106476,-0.001090830782496456,-7.413524185355483,42.14401243537627,-45.0625
1772908157.527572,16.37477848697167,0.28087437197422815,-9.497993361966477,0.20237194371311482,-1.6445345225053019,9.755747483264187,-0.000829143759488421,-0.0013009013099328742,0.0,-7.413524185355483,42.14401243537627,-45.0625
1772908157.5431323,16.37477848697167,0.28087437197422815,-9.497993361966477,0.20177176267797378,-1.644877643231339,9.75716999761604,-0.0017726588603773274,0.0029591888289097167,-0.001090830782496456,-6.782425632690677,43.051961149139544,-45.875
1772908157.5687206,16.37477848697167,0.28087437197422815,-9.497993361966477,0.2013723489035489,-1.645105986241607,9.758116665026673,0.0015367800851551008,-0.0018941662941990688,0.001090830782496456,-6.782425632690677,43.051961149139544,-45.875
1772908157.5891,16.37477848697167,0.28087437197422815,-9.497993361966477,0.2013723489035489,-1.645105986241607,9.758116665026673,0.0015367800851551008,-0.0018941662941990688,0.001090830782496456,-6.782425632690677,43.051961149139544,-45.875
1772908157.6092553,16.37477848697167,0.28087437197422815,-9.497993361966477,0.20437251234214754,-1.644534606592792,9.755401549906162,-0.0013009013099328742,0.0008291437594884211,-0.001090830782496456,-6.539158183345602,41.95357781528513,-45.5
1772908157.6243415,16.37477848697167,0.28087437197422815,-9.497993361966477,0.20310311875277923,-1.6448776991906244,9.756939782830605,0.0005932649842661944,0.002365923844643522,-0.001090830782496456,-6.539158183345602,41.95357781528513,-45.5
1772908157.6615398,16.37477848697167,0.28087437197422815,-9.497993361966477,0.20552432034284426,-1.6443826841104965,9.754618347951315,-0.0004717575504444532,0.002130045069421295,-0.001090830782496456,-6.539158183345602,41.95357781528513,-45.5
1772908157.6765215,16.37477848697167,0.28087437197422815,-9.497993361966477,0.20552432034284426,-1.6443826841104965,9.754618347951315,-0.0004717575504444532,0.002130045069421295,-0.001090830782496456,-6.539158183345602,41.95357781528513,-45.5
1772908157.6949744,16.37477848697167,0.28087437197422815,-9.497993361966477,0.2031462947393143,-1.641510627632008,9.753073458971272,0.0003573862090439678,0.00343094637935417,0.0,-6.714851341205934,42.74685466751332,-45.0625
1772908157.7103684,16.37477848697167,0.28087437197422815,-9.497993361966477,0.20156374526445164,-1.6395993061285468,9.752045352612596,-0.0004717575504444532,0.002130045069421295,0.0,-6.714851341205934,42.74685466751332,-45.0625
1772908157.7277622,16.37477848697167,0.28087437197422815,-9.497993361966477,0.20195725500994685,-1.6448592807063218,9.751361159315596,0.0,0.0,-0.001090830782496456,-6.714851341205934,42.74685466751332,-45.0625
1772908157.750181,16.37477848697167,0.28087437197422815,-9.497993361966477,0.20195725500994685,-1.6448592807063218,9.751361159315596,0.0,0.0,-0.001090830782496456,-6.714851341205934,42.74685466751332,-45.0625
1772908157.7718751,16.37477848697167,0.28087437197422815,-9.497993361966477,0.202219131349782,-1.6483597350300652,9.750905836319383,-0.002130045069421295,-0.0004717575504444532,0.001090830782496456,-8.00366929515149,41.629221216158356,-44.6875
1772908157.7900834,16.37477848697167,0.28087437197422815,-9.497993361966477,0.20239340712859194,-1.6506892482798796,9.743912600537056,-0.0002358787752222266,0.0010650225347106476,0.001090830782496456,-8.00366929515149,41.629221216158356,-44.6875
1772908157.8117323,16.37477848697167,0.28087437197422815,-9.497993361966477,0.20178604634121178,-1.6489735444815288,9.73925868024348,0.0,0.0,-0.001090830782496456,-8.00366929515149,41.629221216158356,-44.6875
1772908157.834986,16.37477848697167,0.28087437197422815,-9.497993361966477,0.20178604634121178,-1.6489735444815288,9.73925868024348,0.0,0.0,-0.001090830782496456,-8.00366929515149,41.629221216158356,-44.6875
1772908157.852236,16.37477848697167,0.28087437197422815,-9.497993361966477,0.20210519389326495,-1.6510977316131277,9.7361615482758,-0.0007076363256666798,0.003195067604131943,-0.001090830782496456,-6.539158183345602,41.95357781528513,-45.5
1772908157.8686385,16.37477848697167,0.28087437197422815,-9.497993361966477,0.2015942436526545,-1.6492453855767477,9.744135776670499,-0.0015367800851551008,0.0018941662941990688,0.0,-6.539158183345602,41.95357781528513,-45.5
1772908157.8840594,16.37477848697167,0.28087437197422815,-9.497993361966477,0.2015942436526545,-1.6492453855767477,9.744135776670499,-0.0015367800851551008,0.0018941662941990688,0.0,-6.539158183345602,41.95357781528513,-45.5
1772908157.9170084,16.37477848697167,0.28087437197422815,-9.497993361966477,0.20125421197521637,-1.6480126699815976,9.736062089759926,0.0005932649842661944,0.002365923844643522,0.0,-6.539158183345602,41.95357781528513,-45.5
1772908157.9523304,16.37477848697167,0.28087437197422815,-9.497993361966477,0.20102792469228403,-1.6471923115233609,9.734034253017251,-0.0004717575504444532,0.002130045069421295,-0.003272492347489368,-6.348723563254461,42.82794381729501,-44.6875
1772908157.9653988,16.37477848697167,0.28087437197422815,-9.497993361966477,0.20102792469228403,-1.6471923115233609,9.734034253017251,-0.0004717575504444532,0.002130045069421295,-0.003272492347489368,-6.348723563254461,42.82794381729501,-44.6875
1772908157.982806,16.37477848697167,0.28087437197422815,-9.497993361966477,0.19761136418955297,-1.6473697115047987,9.732684750317421,-0.0002358787752222266,0.0010650225347106476,0.0,-6.348723563254461,42.82794381729501,-44.6875
1772908157.9981556,16.37477848697167,0.28087437197422815,-9.497993361966477,0.19932698955559128,-1.6500303986831022,9.731786671345619,0.000829143759488421,0.0013009013099328742,-0.001090830782496456,-6.348723563254461,42.82794381729501,-44.6875
1772908158.0162032,16.37477848697167,0.28087437197422815,-9.497993361966477,0.19932698955559128,-1.6500303986831022,9.731786671345619,0.000829143759488421,0.0013009013099328742,-0.001090830782496456,-6.348723563254461,42.82794381729501,-44.6875
1772908158.0391204,16.37477848697167,0.28087437197422815,-9.497993361966477,0.2004687190718987,-1.6518010562784398,9.731189009822083,0.0017726588603773274,-0.0029591888289097167,0.0,-6.416297854739205,43.13305029892123,-45.0625
1772908158.071771,16.37477848697167,0.28087437197422815,-9.497993361966477,0.19905850919687645,-1.6431815025973933,9.737481496169124,-0.0013009013099328742,0.0008291437594884211,-0.001090830782496456,-6.416297854739205,43.13305029892123,-45.0625
1772908158.0884714,16.37477848697167,0.28087437197422815,-9.497993361966477,0.19812003027812564,-1.6374452859093804,9.741669075541402,0.0015367800851551008,-0.0018941662941990688,0.0,-7.047396407404011,42.22510158515796,-45.5
1772908158.1047735,16.37477848697167,0.28087437197422815,-9.497993361966477,0.19812003027812564,-1.6374452859093804,9.741669075541402,0.0015367800851551008,-0.0018941662941990688,0.0,-7.047396407404011,42.22510158515796,-45.5
1772908158.1301432,16.37477848697167,0.28087437197422815,-9.497993361966477,0.19894216178397373,-1.640159835468715,9.744455862835327,-0.000829143759488421,-0.0013009013099328742,0.0,-7.047396407404011,42.22510158515796,-45.5
1772908158.158636,16.37477848697167,0.28087437197422815,-9.497993361966477,0.19948928111730493,-1.6419663378769467,9.74631043864898,0.0002358787752222266,-0.0010650225347106476,0.0,-6.1111913731129786,43.20062459040598,-45.5
1772908158.182574,16.37477848697167,0.28087437197422815,-9.497993361966477,0.19948928111730493,-1.6419663378769467,9.74631043864898,0.0002358787752222266,-0.0010650225347106476,0.0,-6.1111913731129786,43.20062459040598,-45.5
1772908158.20571,16.37477848697167,0.28087437197422815,-9.497993361966477,0.19586407470678915,-1.6406259155773268,9.740854414721358,0.0,0.0,0.0,-6.1111913731129786,43.20062459040598,-45.5
