timestamp,yaw,pitch,roll,ax,ay,az,gx,gy,gz,mx,my,mz
1772313074.7642155,152.88146630241957,1.4545536651198108,-7.831800803517975,-0.24896096326591863,-1.3310421141067859,9.756118491469573,0.0,-0.001090830782496456,0.0,8.1875,-3.6875,-65.0625
1772313075.1612327,152.59600383476885,1.4570180244033615,-7.833915370192032,-0.2563329615888085,-1.324564778940904,9.763663828053028,0.0,0.0,0.0,7.75,-3.6875,-65.0625
1772313075.3147974,152.73019343982037,1.457813998935944,-7.837081568754391,-0.24852139331845924,-1.3283980848011223,9.761079834983786,0.0,0.0,-0.002181661564992912,7.75,-4.5,-65.0625
1772313075.3618994,152.7366185127394,1.4514735400675598,-7.835206613868077,-0.24567089206323411,-1.3289339433297123,9.760718618119162,-0.001090830782496456,-0.001090830782496456,0.001090830782496456,7.75,-4.5,-65.0625
1772313075.3875537,152.7366185127394,1.4514735400675598,-7.835206613868077,-0.24567089206323411,-1.3289339433297123,9.760718618119162,-0.001090830782496456,-0.001090830782496456,0.001090830782496456,7.75,-4.5,-65.0625
1772313075.4152927,152.73019343982037,1.457813998935944,-7.837081568754391,-0.24042880361274782,-1.3292905511945567,9.763823344038132,-0.001090830782496456,-0.001090830782496456,0.001090830782496456,7.75,-2.5625,-65.875
1772313075.4296386,152.73019343982037,1.457813998935944,-7.837081568754391,-0.24028536401423345,-1.32952786974504,9.765889504455144,0.001090830782496456,0.001090830782496456,-0.001090830782496456,7.75,-2.5625,-65.875
1772313075.4477723,152.7366185127394,1.4514735400675598,-7.835206613868077,-0.24018990656374745,-1.3296858025893645,9.767264511132142,0.0,0.002181661564992912,-0.003272492347489368,7.75,-2.5625,-65.875
1772313075.4753442,152.7366185127394,1.4514735400675598,-7.835206613868077,-0.2401263806967786,-1.3297909051330372,9.761489339301214,-0.001090830782496456,0.0,0.0,7.75,-3.25,-66.25
1772313075.5101087,152.7366185127394,1.4514735400675598,-7.835206613868077,-0.2401263806967786,-1.3297909051330372,9.761489339301214,-0.001090830782496456,0.0,0.0,7.75,-3.25,-66.25
1772313075.5350707,0.0012418998802894445,1.4515422127215134,-7.8355762012894035,-0.39577149232955733,1.292104942670891,9.757646026960629,-0.0004996894376132761,0.00096965058757243,0.0,7.75,-3.25,-66.25
1772313075.618921,0.17438859607384244,1.456562306338284,-7.831647022921979,-0.39581782343835553,1.2921334313802793,9.75508834553058,-0.001969029462798982,0.001439611737531584,0.001090830782496456,-8.766717085217099,-0.8615844693137398,-65.875
1772313075.6548035,0.17438859607384244,1.456562306338284,-7.831647022921979,-0.39431632237315734,1.2891788864471785,9.756731348817377,-0.0009993788752265522,0.00193930117514486,0.0,-8.766717085217099,-0.8615844693137398,-65.875
1772313075.6870716,0.17438859607384244,1.456562306338284,-7.831647022921979,-0.39431632237315734,1.2891788864471785,9.756731348817377,-0.0009993788752265522,0.00193930117514486,0.0,-8.766717085217099,-0.8615844693137398,-65.875
1772313075.7202117,0.27643384374945207,1.4550374870737193,-7.835209670165524,-0.39034358633617494,1.2887450036991803,9.75782474915119,-0.0014693400251857061,0.0004699611499591539,0.0,-8.527782582196595,0.17558610646747908,-66.6875
1772313075.7428768,0.27643384374945207,1.4550374870737193,-7.835209670165524,-0.39034358633617494,1.2887450036991803,9.75782474915119,-0.0014693400251857061,0.0004699611499591539,0.0,-8.527782582196595,0.17558610646747908,-66.6875
1772313075.761363,0.2099497000852606,1.4590133028828947,-7.831289194261333,-0.3876997748819325,1.2884562595771756,9.758552394859262,0.00096965058757243,0.0004996894376132761,0.001090830782496456,-8.527782582196595,0.17558610646747908,-66.6875
1772313075.7859638,0.2099497000852606,1.4590133028828947,-7.831289194261333,-0.3876997748819325,1.2884562595771756,9.758552394859262,0.00096965058757243,0.0004996894376132761,0.001090830782496456,-8.527782582196595,0.17558610646747908,-66.6875
1772313075.826025,0.18959671028179495,1.4575580265457988,-7.8312129305544325,-0.3874726817929944,1.2912376074404235,9.759036634949647,0.0004699611499591539,0.0014693400251857061,-0.001090830782496456,-7.891107252002526,-1.6056408650109664,-66.6875
1772313075.8396404,0.18959671028179495,1.4575580265457988,-7.8312129305544325,-0.3873215538791021,1.2930885633737237,9.759358891320483,0.0004699611499591539,0.0014693400251857061,0.0,-7.891107252002526,-1.6056408650109664,-66.6875
1772313075.8896685,0.18959671028179495,1.4575580265457988,-7.8312129305544325,-0.3873215538791021,1.2930885633737237,9.759358891320483,0.0004699611499591539,0.0014693400251857061,0.0,-7.891107252002526,-1.6056408650109664,-66.6875
1772313075.966278,0.13882838778284157,1.4541111462733662,-7.832003320987342,-0.38475379665455733,1.3026445191282408,9.759716068748732,-0.0004699611499591539,-0.0014693400251857061,0.001090830782496456,-8.652196701847075,-1.0838120143948624,-65.5
1772313076.0273044,0.09600107186254947,1.4579552459800063,-7.8339768954912845,-0.3840709962410015,1.3051855734299231,9.76315615863132,-0.0014693400251857061,0.0004699611499591539,0.001090830782496456,-9.300469073736327,-0.6444668404768134,-65.0625
1772313076.0737696,0.30357616600782183,1.456978750228169,-7.835310594639183,-0.3865901040441193,1.3053442827817052,9.76544550001986,0.0004699611499591539,0.0014693400251857061,-0.001090830782496456,-9.300469073736327,-0.6444668404768134,-65.0625
1772313076.106258,0.30357616600782183,1.456978750228169,-7.835310594639183,-0.3865901040441193,1.3053442827817052,9.76544550001986,0.0004699611499591539,0.0014693400251857061,-0.001090830782496456,-9.300469073736327,-0.6444668404768134,-65.0625
1772313076.129363,0.30357616600782183,1.456978750228169,-7.835310594639183,-0.389707712097224,1.3009440643309067,9.766969031140315,-0.0014693400251857061,0.0004699611499591539,0.0,-8.263298497955109,-0.8834013434973176,-66.25
1772313076.143176,0.3119946556688687,1.4574891520601643,-7.834850189211255,-0.39178244543060126,1.298015768105561,9.764637812374701,-0.00096965058757243,-0.0004996894376132761,0.0,-8.263298497955109,-0.8834013434973176,-66.25
1772313076.1603127,0.3119946556688687,1.4574891520601643,-7.834850189211255,-0.39178244543060126,1.298015768105561,9.764637812374701,-0.00096965058757243,-0.0004996894376132761,0.0,-8.263298497955109,-0.8834013434973176,-66.25
1772313076.1971657,0.22564208057630009,1.4532263290125775,-7.829217001491567,-0.3916308233871229,1.293093515827847,9.763086412327604,-0.0014693400251857061,0.0004699611499591539,0.0,-8.985538019468757,-1.2555925894499007,-66.6875
1772313076.211797,0.22564208057630009,1.4532263290125775,-7.829217001491567,-0.3930622545114683,1.2927913157731477,9.762053972926536,-0.001969029462798982,0.001439611737531584,0.0,-8.985538019468757,-1.2555925894499007,-66.6875
1772313076.2243652,0.22564208057630009,1.4532263290125775,-7.829217001491567,-0.3930622545114683,1.2927913157731477,9.762053972926536,-0.001969029462798982,0.001439611737531584,0.0,-8.985538019468757,-1.2555925894499007,-66.6875
1772313076.241345,0.22564208057630009,1.4532263290125775,-7.829217001491567,-0.3940148559345868,1.292590205012541,9.758021784330909,0.002438990612758136,2.972828765412221e-05,0.0,-8.985538019468757,-1.2555925894499007,-66.6875
1772313076.2558064,0.22564208057630009,1.4532263290125775,-7.829217001491567,-0.394648801540417,1.2924563680479118,9.755338407863018,-0.0014990683128398284,0.0029089517627172903,0.002181661564992912,-8.967127756114644,-0.472686265421775,-66.6875
1772313076.2683372,0.22564208057630009,1.4532263290125775,-7.829217001491567,-0.394648801540417,1.2924563680479118,9.755338407863018,-0.0014990683128398284,0.0029089517627172903,0.002181661564992912,-8.967127756114644,-0.472686265421775,-66.6875
1772313076.2828507,0.22564208057630009,1.4532263290125775,-7.829217001491567,-0.3995765230109706,1.2938084709934157,9.756897762506235,-0.0014693400251857061,0.0004699611499591539,-0.001090830782496456,-8.967127756114644,-0.472686265421775,-66.6875
1772313076.3187532,0.22564208057630009,1.4532263290125775,-7.829217001491567,-0.40132353270281723,1.29173477654871,9.757935495602162,0.0009993788752265522,-0.00193930117514486,0.0,-9.138908331169683,-0.139344947800091,-65.5
1772313076.3546832,0.3119946556688687,1.4574891520601643,-7.834850189211255,-0.40401848203791535,1.293328259911402,9.758626095385264,0.0009993788752265522,-0.00193930117514486,0.0,-9.138908331169683,-0.139344947800091,-65.5
1772313076.3703208,0.3119946556688687,1.4574891520601643,-7.834850189211255,-0.40401848203791535,1.293328259911402,9.758626095385264,0.0009993788752265522,-0.00193930117514486,0.0,-9.138908331169683,-0.139344947800091,-65.5
1772313076.3915298,0.09600107186254947,1.4579552459800063,-7.8339768954912845,-0.40130610296435654,1.2929475353384903,9.755740570119094,-0.0009993788752265522,0.00193930117514486,0.002181661564992912,-7.766693132352048,-0.3462427441486248,-65.875
1772313076.408128,0.09600107186254947,1.4579552459800063,-7.8339768954912845,-0.40130610296435654,1.2929475353384903,9.755740570119094,-0.0009993788752265522,0.00193930117514486,0.002181661564992912,-7.766693132352048,-0.3462427441486248,-65.875
1772313076.4322586,0.09600107186254947,1.4579552459800063,-7.8339768954912845,-0.3995010449901627,1.2926941673881898,9.757165396995207,-0.0004996894376132761,0.00096965058757243,-0.001090830782496456,-7.766693132352048,-0.3462427441486248,-65.875
1772313076.4669507,0.09435587309513807,1.457929327302819,-7.834462291744345,-0.39532629522119656,1.294057887748121,9.758113603364901,0.0,0.0,0.0,-7.766693132352048,-0.3462427441486248,-65.875
1772313076.5025156,0.09435587309513807,1.457929327302819,-7.834462291744345,-0.39532629522119656,1.294057887748121,9.758113603364901,0.0,0.0,0.0,-7.766693132352048,-0.3462427441486248,-65.875
1772313076.5463872,0.09435587309513807,1.457929327302819,-7.834462291744345,-0.39254804588496023,1.294965428413901,9.758744624111772,0.0004996894376132761,-0.00096965058757243,-0.002181661564992912,-7.840660281976442,-1.157779164019257,-65.5
1772313076.5805774,0.09435587309513807,1.457929327302819,-7.834462291744345,-0.3906991519867735,1.2955693865890838,9.759164561369852,-0.00193930117514486,-0.0009993788752265522,0.001090830782496456,-7.840660281976442,-1.157779164019257,-65.5
1772313076.6349802,0.030019004500369165,1.4535096967749985,-7.835197230627661,-0.39541574145294606,1.292906646206911,9.759444024924097,-0.0004699611499591539,-0.0014693400251857061,-0.001090830782496456,-9.861147852683331,-0.5115361937526737,-65.5
1772313076.6777313,0.030019004500369165,1.4535096967749985,-7.835197230627661,-0.3955810752039685,1.2926669561278854,9.759630004797636,0.001909572887490738,0.0034383694879846884,0.001090830782496456,-9.861147852683331,-0.5115361937526737,-65.5
1772313076.7143083,0.038449695450525775,1.4540213399122492,-7.834738309069664,-0.3956911029683749,1.2925074450578071,9.753063548911305,-0.0014693400251857061,0.0004699611499591539,0.001090830782496456,-9.138908331169683,-0.139344947800091,-65.875
1772313076.7691891,0.038449695450525775,1.4540213399122492,-7.834738309069664,-0.39576432521649674,1.2924012922225256,9.755383869285708,0.0004996894376132761,-0.00096965058757243,-0.002181661564992912,-9.138908331169683,-0.139344947800091,-65.875
1772313076.8365703,0.06722542609363913,1.4559883927223,-7.834358095723981,-0.39437188385426797,1.2968364864479607,9.756928016575198,0.00096965058757243,0.0004996894376132761,0.0,-8.750010127277717,0.06106572309745385,-65.0625
1772313076.8735013,0.13882838778284157,1.4541111462733662,-7.832003320987342,-0.3979510674338039,1.3012292286110296,9.757955629347098,0.0,0.0,0.002181661564992912,-8.750010127277717,0.06106572309745385,-65.0625
1772313076.9502802,0.1252619111168351,1.45314105503049,-7.831951333181651,-0.4003329741238847,1.3041525494504067,9.761984605874929,0.0004996894376132761,-0.00096965058757243,0.0,-8.766717085217099,-0.8615844693137398,-65.5
1772313077.0385509,0.11683514419910379,1.4526299273394783,-7.832410450351152,-0.40191810641849235,1.3060979868133789,9.764665844747585,0.0009993788752265522,-0.00193930117514486,0.001090830782496456,-8.766717085217099,-0.8615844693137398,-65.5
1772313077.0637147,0.21837239072673625,1.4595236913045295,-7.830829238919095,-0.40144066035291465,1.3044191497955184,9.766450179265936,-0.0004996894376132761,0.00096965058757243,0.0,-8.967127756114644,-0.472686265421775,-65.875
1772313077.122748,0.2680138683141726,1.454526811442853,-7.835669747510258,-0.40112292532969474,1.303301902513971,9.767637633955577,-0.00096965058757243,-0.0004996894376132761,-0.002181661564992912,-8.967127756114644,-0.472686265421775,-65.875
1772313077.1494927,0.2680138683141726,1.454526811442853,-7.835669747510258,-0.3993791423205236,1.299584883077612,9.768427871786795,-0.001969029462798982,0.001439611737531584,0.002181661564992912,-8.967127756114644,-0.472686265421775,-65.5
1772313077.2005239,0.2680138683141726,1.454526811442853,-7.835669747510258,-0.3993791423205236,1.299584883077612,9.768427871786795,-0.001969029462798982,0.001439611737531584,0.002181661564992912,-8.967127756114644,-0.472686265421775,-65.5
1772313077.2491581,0.29000461835699887,1.456008085210329,-7.83526024595327,-0.39524517035629386,1.2986435820650941,9.765608654528615,0.0004996894376132761,-0.00096965058757243,-0.001090830782496456,-8.967127756114644,-0.472686265421775,-65.5
1772313077.286918,0.29000461835699887,1.456008085210329,-7.83526024595327,-0.3909617242930405,1.2950436529053255,9.763732496936017,-0.0014693400251857061,0.0004699611499591539,0.001090830782496456,-8.263298497955109,-0.8834013434973176,-66.25
1772313077.3332293,0.29000461835699887,1.456008085210329,-7.83526024595327,-0.3881111387871732,1.2926479402633435,9.762483935016196,0.00096965058757243,0.0004996894376132761,0.0,-8.263298497955109,-0.8834013434973176,-66.25
1772313077.3546767,0.29000461835699887,1.456008085210329,-7.83526024595327,-0.3881111387871732,1.2926479402633435,9.762483935016196,0.00096965058757243,0.0004996894376132761,0.0,-8.263298497955109,-0.8834013434973176,-66.25
1772313077.3918877,0.15239564145882595,1.455081305002909,-7.832055081980912,-0.3877464398766961,1.2940271241129269,9.761653031005906,0.0014693400251857061,-0.0004699611499591539,0.0,-8.785127348571214,-1.6444907933418653,-66.6875
1772313077.4201844,0.1540373875206625,1.4551071119843864,-7.831569857637759,-0.38750373682572736,1.2949449555583317,9.761100073668864,-0.0004996894376132761,0.00096965058757243,-0.001090830782496456,-8.785127348571214,-1.6444907933418653,-66.6875
1772313077.4563806,0.10278379427917078,1.45844046518985,-7.834002785701227,-0.38887455455702946,1.298529265983358,9.760732086738,0.0004996894376132761,-0.00096965058757243,0.0,-9.100058402838783,-1.033365044368778,-66.25
1772313077.4854493,0.10278379427917078,1.45844046518985,-7.834002785701227,-0.3927603222951325,1.2993822506312913,9.760487195546196,0.002438990612758136,2.972828765412221e-05,-0.002181661564992912,-9.100058402838783,-1.033365044368778,-66.25
1772313077.5294826,0.10278379427917078,1.45844046518985,-7.834002785701227,-0.3927603222951325,1.2993822506312913,9.760487195546196,0.002438990612758136,2.972828765412221e-05,-0.002181661564992912,-9.100058402838783,-1.033365044368778,-66.25
1772313077.5632532,0.2832191344035161,1.4555227777771746,-7.835234986444417,-0.39534625731797035,1.2999499023860281,9.760324223193662,-0.0009993788752265522,0.00193930117514486,-0.001090830782496456,-8.750010127277717,0.06106572309745385,-65.5
1772313077.589065,0.2832191344035161,1.4555227777771746,-7.835234986444417,-0.3940936643379231,1.3018600021882707,9.760215766913571,-0.0034086412003305664,-0.0005294177252673983,0.0,-8.750010127277717,0.06106572309745385,-65.5
1772313077.644712,0.2832191344035161,1.4555227777771746,-7.835234986444417,-0.3932600777020821,1.3031311522694506,9.760143590470708,-0.00096965058757243,-0.0004996894376132761,0.0,-9.138908331169683,-0.139344947800091,-65.875
1772313077.683657,0.2612285880029516,1.4540414974786093,-7.835644300841888,-0.39270533510770267,1.303977088448799,9.756750446146926,0.0,0.0,0.0,-9.138908331169683,-0.139344947800091,-65.875
1772313077.7546544,0.2612285880029516,1.4540414974786093,-7.835644300841888,-0.39270533510770267,1.303977088448799,9.756750446146926,0.0,0.0,0.0,-9.138908331169683,-0.139344947800091,-65.875
1772313077.7800555,0.4191677310580301,1.458057791932859,-7.832136490384528,-0.3892714923069218,1.298593041824511,9.754492346503355,0.0,0.0,-0.001090830782496456,-8.13888437830463,0.3759967773650239,-65.5
1772313077.8173528,0.4191677310580301,1.458057791932859,-7.832136490384528,-0.38698630828153957,1.2950100189397893,9.752989606415184,-0.0004699611499591539,-0.0014693400251857061,0.0,-8.13888437830463,0.3759967773650239,-65.5
1772313077.8759184,0.3836043045967961,1.4556072114511343,-7.832498486460272,-0.3960095532433969,1.2984814009867693,9.751989549673214,-0.0029386800503714123,0.0009399222999183078,-0.001090830782496456,-8.652196701847075,-1.0838120143948624,-65.875
1772313077.9013727,0.3836043045967961,1.4556072114511343,-7.832498486460272,-0.3960674142673446,1.3038562347622584,9.751324023082798,-0.0009993788752265522,0.00193930117514486,0.0,-8.652196701847075,-1.0838120143948624,-65.875
1772313077.9480853,0.3836043045967961,1.4556072114511343,-7.832498486460272,-0.39457358623188066,1.3044596227480603,9.750881122571295,-0.0004699611499591539,-0.0014693400251857061,-0.001090830782496456,-8.652196701847075,-1.0838120143948624,-65.875
1772313077.9752226,0.3836043045967961,1.4556072114511343,-7.832498486460272,-0.39204712646088086,1.3018876668613673,9.750586377228412,-0.001969029462798982,0.001439611737531584,0.001090830782496456,-8.578229552222679,-0.27227559452423017,-67.0625
1772313078.017806,0.41238026556544605,1.4575726032416043,-7.8321119433811,-0.3903657957056853,1.3001760589494025,9.750390227495245,-0.001969029462798982,0.001439611737531584,0.0,-8.578229552222679,-0.27227559452423017,-67.0625
1772313078.0514119,0.41238026556544605,1.4575726032416043,-7.8321119433811,-0.3903657957056853,1.3001760589494025,9.750390227495245,-0.001969029462798982,0.001439611737531584,0.0,-8.578229552222679,-0.27227559452423017,-67.0625
1772313078.1107247,0.41238026556544605,1.4575726032416043,-7.8321119433811,-0.38924688886979786,1.2990370030039033,9.753604803746278,-0.0014693400251857061,0.0004699611499591539,0.0,-8.766717085217099,-0.8615844693137398,-66.25
1772313078.1359837,0.41238026556544605,1.4575726032416043,-7.8321119433811,-0.3930081066210331,1.29972014394667,9.75574406833217,-0.0004996894376132761,0.00096965058757243,-0.001090830782496456,-8.766717085217099,-0.8615844693137398,-66.25
1772313078.1515167,0.41238026556544605,1.4575726032416043,-7.8321119433811,-0.3930081066210331,1.29972014394667,9.75574406833217,-0.0004996894376132761,0.00096965058757243,-0.001090830782496456,-8.766717085217099,-0.8615844693137398,-66.25
1772313078.1781054,0.41238026556544605,1.4575726032416043,-7.8321119433811,-0.3939788211183737,1.297201262761938,9.753822613309612,0.00096965058757243,0.0004996894376132761,-0.001090830782496456,-7.840660281976442,-1.157779164019257,-66.25
1772313078.223254,0.41238026556544605,1.4575726032416043,-7.8321119433811,-0.39156015297166025,1.2895779677693278,9.75254390645616,2.9728287654122175e-05,-0.002438990612758136,0.001090830782496456,-7.840660281976442,-1.157779164019257,-66.25
1772313078.2627175,0.41238026556544605,1.4575726032416043,-7.8321119433811,-0.38995055633831593,1.2845047501095304,9.751692941329276,0.0004996894376132761,-0.00096965058757243,-0.001090830782496456,-7.967103803249592,0.04265545974333988,-67.0625
1772313078.2832744,0.41238026556544605,1.4575726032416043,-7.8321119433811,-0.3889705517093412,1.2886079220309585,9.74778152183592,0.0004996894376132761,-0.00096965058757243,-0.001090830782496456,-7.967103803249592,0.04265545974333988,-67.0625
1772313078.3308072,0.41238026556544605,1.4575726032416043,-7.8321119433811,-0.3889705517093412,1.2886079220309585,9.74778152183592,0.0004996894376132761,-0.00096965058757243,-0.001090830782496456,-7.967103803249592,0.04265545974333988,-67.0625
1772313078.359279,0.41238026556544605,1.4575726032416043,-7.8321119433811,-0.39282420732763756,1.2927797070596432,9.748523627563829,0.0009993788752265522,-0.00193930117514486,-0.001090830782496456,-7.766693132352048,-0.3462427441486248,-66.25
1772313078.3911984,0.41238026556544605,1.4575726032416043,-7.8321119433811,-0.3938564381929087,1.2925824795433818,9.74567237892857,0.0004699611499591539,0.0014693400251857061,0.001090830782496456,-7.766693132352048,-0.3462427441486248,-66.25
1772313078.4185276,0.41238026556544605,1.4575726032416043,-7.8321119433811,-0.3960757102035235,1.2954247306854443,9.747120016519657,-0.0014693400251857061,0.0004699611499591539,0.001090830782496456,-8.527782582196595,0.17558610646747908,-66.25
1772313078.433661,0.41238026556544605,1.4575726032416043,-7.8321119433811,-0.39755261093569494,1.2973162170704613,9.748083403165355,0.0034086412003305664,0.0005294177252673983,0.0,-8.527782582196595,0.17558610646747908,-66.25
1772313078.454936,0.41238026556544605,1.4575726032416043,-7.8321119433811,-0.39755261093569494,1.2973162170704613,9.748083403165355,0.0034086412003305664,0.0005294177252673983,0.0,-8.527782582196595,0.17558610646747908,-66.25
1772313078.4798412,0.41238026556544605,1.4575726032416043,-7.8321119433811,-0.395561968023934,1.3001073140309538,9.748724526216334,0.0014693400251857061,-0.0004699611499591539,0.001090830782496456,-8.527782582196595,0.17558610646747908,-66.25
1772313078.5358672,0.41238026556544605,1.4575726032416043,-7.8321119433811,-0.38973137965158544,1.300523587929158,9.749151186444946,0.001969029462798982,-0.001439611737531584,-0.001090830782496456,-8.578229552222679,-0.27227559452423017,-66.6875
1772313078.5642033,0.41238026556544605,1.4575726032416043,-7.8321119433811,-0.3858511882217272,1.3008006135583285,9.74943512406098,0.00096965058757243,0.0004996894376132761,0.0,-8.578229552222679,-0.27227559452423017,-66.6875
1772313078.615825,0.41238026556544605,1.4575726032416043,-7.8321119433811,-0.383268964169735,1.3009849710199626,9.74627896966534,0.00096965058757243,0.0004996894376132761,0.002181661564992912,-7.633762485627908,0.21443603479837775,-65.0625
1772313078.6309013,0.41238026556544605,1.4575726032416043,-7.8321119433811,-0.3800181890079157,1.2981341550003134,9.747523695878916,0.0004996894376132761,-0.00096965058757243,-0.001090830782496456,-7.633762485627908,0.21443603479837775,-65.0625
1772313078.6550434,0.41238026556544605,1.4575726032416043,-7.8321119433811,-0.3838930061033239,1.300651642586305,9.751697158976867,0.0024687189004122586,-0.002409262325104014,-0.001090830782496456,-7.633762485627908,0.21443603479837775,-65.0625
1772313078.6867304,0.41238026556544605,1.4575726032416043,-7.8321119433811,-0.3834981497448162,1.3038593363531545,9.754474552047917,0.0004996894376132761,-0.00096965058757243,0.0,-8.785127348571214,-1.6444907933418653,-65.5
1772313078.7427876,0.41238026556544605,1.4575726032416043,-7.8321119433811,-0.3862088811000227,1.3044616868221546,9.756322876111186,-2.9728287654122175e-05,0.002438990612758136,-0.001090830782496456,-8.785127348571214,-1.6444907933418653,-65.5
1772313078.7611227,0.41238026556544605,1.4575726032416043,-7.8321119433811,-0.3864805086355082,1.3018890404796197,9.75755291512816,0.00096965058757243,0.0004996894376132761,-0.001090830782496456,-8.527782582196595,0.17558610646747908,-65.875
1772313078.7816024,0.41238026556544605,1.4575726032416043,-7.8321119433811,-0.3864805086355082,1.3018890404796197,9.75755291512816,0.00096965058757243,0.0004996894376132761,-0.001090830782496456,-8.527782582196595,0.17558610646747908,-65.875
1772313078.8304753,0.41238026556544605,1.4575726032416043,-7.8321119433811,-0.3881024436765031,1.2956711353254955,9.7550263806462,0.0,0.0,0.002181661564992912,-8.527782582196595,0.17558610646747908,-65.875
1772313078.865587,0.41238026556544605,1.4575726032416043,-7.8321119433811,-0.3862083194771248,1.2930655228045287,9.756690111879015,0.0004996894376132761,-0.00096965058757243,0.0,-8.766717085217099,-0.8615844693137398,-67.0625
1772313078.9064856,0.41238026556544605,1.4575726032416043,-7.8321119433811,-0.3886398585937386,1.2941101414922,9.754081863086688,0.0014693400251857061,-0.0004699611499591539,0.001090830782496456,-8.766717085217099,-0.8615844693137398,-67.0625
1772313078.929667,0.41238026556544605,1.4575726032416043,-7.8321119433811,-0.3886398585937386,1.2941101414922,9.754081863086688,0.0014693400251857061,-0.0004699611499591539,0.001090830782496456,-8.766717085217099,-0.8615844693137398,-67.0625
1772313078.958291,0.41238026556544605,1.4575726032416043,-7.8321119433811,-0.3865659631012271,1.2920266988459141,9.752716434286793,-0.0004996894376132761,0.00096965058757243,-0.001090830782496456,-8.967127756114644,-0.472686265421775,-67.0625
1772313078.9949327,0.41238026556544605,1.4575726032416043,-7.8321119433811,-0.3851858088178912,1.29064019103839,9.751807756673301,-0.001439611737531584,-0.0019690294627989825,0.001090830782496456,-8.967127756114644,-0.472686265421775,-67.0625
1772313079.0268857,0.41238026556544605,1.4575726032416043,-7.8321119433811,-0.38724083541062354,1.2881851516802387,9.751203041872117,0.0009993788752265522,-0.00193930117514486,-0.001090830782496456,-8.578229552222679,-0.27227559452423017,-66.25
1772313079.053352,0.41238026556544605,1.4575726032416043,-7.8321119433811,-0.3901407665524869,1.2895248542629345,9.754145722634355,0.001969029462798982,-0.001439611737531584,0.0,-8.578229552222679,-0.27227559452423017,-66.25
1772313079.0763848,0.41238026556544605,1.4575726032416043,-7.8321119433811,-0.38909713448208466,1.2919487452668112,9.756104043809726,0.001439611737531584,0.0019690294627989825,-0.001090830782496456,-8.578229552222679,-0.27227559452423017,-66.25
1772313079.1157424,0.41238026556544605,1.4575726032416043,-7.8321119433811,-0.38909713448208466,1.2919487452668112,9.756104043809726,0.001439611737531584,0.0019690294627989825,-0.001090830782496456,-8.578229552222679,-0.27227559452423017,-66.25
1772313079.1479034,0.41238026556544605,1.4575726032416043,-7.8321119433811,-0.3884026089973661,1.2935618176532546,9.757407284676056,0.00193930117514486,0.0009993788752265522,-0.003272492347489368,-8.155591336244012,-0.5466534150461697,-64.6875
1772313079.176054,0.41238026556544605,1.4575726032416043,-7.8321119433811,-0.38496690619468515,1.2961676332077845,9.761619688621762,-2.9728287654122175e-05,0.002438990612758136,-0.001090830782496456,-8.155591336244012,-0.5466534150461697,-64.6875
1772313079.19373,0.41238026556544605,1.4575726032416043,-7.8321119433811,-0.38565398820977476,1.296369440449906,9.764422996391994,-0.0014693400251857061,0.0004699611499591539,-0.002181661564992912,-8.527782582196595,0.17558610646747908,-67.0625
1772313079.2298589,0.41238026556544605,1.4575726032416043,-7.8321119433811,-0.3861112336156079,1.2965037409152034,9.766288566398085,0.00096965058757243,0.0004996894376132761,0.0,-8.527782582196595,0.17558610646747908,-67.0625
1772313079.245836,0.41238026556544605,1.4575726032416043,-7.8321119433811,-0.38641552532542395,1.296593116374624,9.767530082397355,-0.0014693400251857061,0.0004699611499591539,0.001090830782496456,-8.527782582196595,0.17558610646747908,-67.0625
1772313079.2795844,0.41238026556544605,1.4575726032416043,-7.8321119433811,-0.38508569415859434,1.2936790908935205,9.765011185718908,0.0009399222999183078,0.0029386800503714123,0.001090830782496456,-8.652196701847075,-1.0838120143948624,-65.875
1772313079.3137565,0.41238026556544605,1.4575726032416043,-7.8321119433811,-0.38420070637225673,1.2917398394876436,9.76333488811732,-0.0014693400251857061,0.0004699611499591539,-0.002181661564992912,-8.652196701847075,-1.0838120143948624,-65.875
1772313079.3494356,0.41238026556544605,1.4575726032416043,-7.8321119433811,-0.38420070637225673,1.2917398394876436,9.76333488811732,-0.0014693400251857061,0.0004699611499591539,-0.002181661564992912,-8.652196701847075,-1.0838120143948624,-65.875
1772313079.368845,0.41238026556544605,1.4575726032416043,-7.8321119433811,-0.38514409078696143,1.2934227931908489,9.762219330788936,0.0009993788752265522,-0.00193930117514486,0.0,-7.766693132352048,-0.3462427441486248,-65.5
1772313079.3930664,0.41238026556544605,1.4575726032416043,-7.8321119433811,-0.38279839872569416,1.2960751139810585,9.761476939848487,-2.9728287654122175e-05,0.002438990612758136,0.002181661564992912,-7.766693132352048,-0.3462427441486248,-65.5
1772313079.4155118,0.41238026556544605,1.4575726032416043,-7.8321119433811,-0.38123736686201803,1.2978402038385783,9.75763777526335,0.0,0.0,-0.001090830782496456,-7.766693132352048,-0.3462427441486248,-65.5
1772313079.4424238,0.41238026556544605,1.4575726032416043,-7.8321119433811,-0.38123736686201803,1.2978402038385783,9.75763777526335,0.0,0.0,-0.001090830782496456,-7.766693132352048,-0.3462427441486248,-65.5
1772313079.4761622,0.41238026556544605,1.4575726032416043,-7.8321119433811,-0.3831720214455689,1.297482517520861,9.75508285411822,0.0,0.0,-0.001090830782496456,-8.967127756114644,-0.472686265421775,-64.25
1772313079.517155,0.41238026556544605,1.4575726032416043,-7.8321119433811,-0.38445951245941434,1.2972444812720383,9.753382582636474,-0.0004996894376132761,0.00096965058757243,0.0,-8.967127756114644,-0.472686265421775,-64.25
1772313079.5552964,0.41238026556544605,1.4575726032416043,-7.8321119433811,-0.38445951245941434,1.2972444812720383,9.753382582636474,-0.0004996894376132761,0.00096965058757243,0.0,-8.967127756114644,-0.472686265421775,-64.25
1772313079.5852659,0.41238026556544605,1.4575726032416043,-7.8321119433811,-0.38531632334691146,1.2970860708074858,9.755596182665968,0.0004996894376132761,-0.00096965058757243,0.0,-8.155591336244012,-0.5466534150461697,-66.25
1772313079.6405883,0.41238026556544605,1.4575726032416043,-7.8321119433811,-0.38588652142133606,1.2969806504128871,9.753724197050746,-0.0009993788752265522,0.00193930117514486,0.0,-8.155591336244012,-0.5466534150461697,-66.25
1772313079.6880176,0.41238026556544605,1.4575726032416043,-7.8321119433811,-0.3862659818703358,1.2969104943179046,9.752478411535265,-2.9728287654122175e-05,0.002438990612758136,-0.002181661564992912,-9.67266031968891,0.07777268103683543,-66.6875
1772313079.7654572,0.41238026556544605,1.4575726032416043,-7.8321119433811,-0.38651850856029407,1.2968638062203885,9.751649355191047,-0.0009993788752265522,0.00193930117514486,0.001090830782496456,-9.67266031968891,0.07777268103683543,-66.6875
1772313079.803597,0.41238026556544605,1.4575726032416043,-7.8321119433811,-0.3866865622515534,1.2968327358130318,9.754442739162457,0.0,0.0,0.002181661564992912,-8.578229552222679,-0.27227559452423017,-66.25
1772313079.8213155,0.41238026556544605,1.4575726032416043,-7.8321119433811,-0.3838248962548449,1.2983443927045664,9.759646816698606,0.0,0.0,-0.001090830782496456,-8.578229552222679,-0.27227559452423017,-66.25
1772313079.8478909,0.41238026556544605,1.4575726032416043,-7.8321119433811,-0.3848939933518979,1.2978180495790175,9.763110072165558,-0.0004699611499591539,-0.0014693400251857061,-0.001090830782496456,-8.578229552222679,-0.27227559452423017,-66.25
1772313079.872844,0.41238026556544605,1.4575726032416043,-7.8321119433811,-0.38560546552738967,1.2974677741086027,9.765414829991716,0.00096965058757243,0.0004996894376132761,0.0,-9.138908331169683,-0.139344947800091,-66.6875
1772313079.9117084,0.41238026556544605,1.4575726032416043,-7.8321119433811,-0.38607894231251444,1.297234669695875,9.766948620579193,-0.0009993788752265522,0.00193930117514486,0.0,-9.138908331169683,-0.139344947800091,-66.6875
1772313079.933651,0.41238026556544605,1.4575726032416043,-7.8321119433811,-0.38936753967489157,1.2955472074126004,9.767969341081594,0.001439611737531584,0.0019690294627989825,0.0,-8.967127756114644,-0.472686265421775,-67.0625
1772313079.9677107,0.41238026556544605,1.4575726032416043,-7.8321119433811,-0.391556064483514,1.29442422011327,9.768648619173748,-0.0004996894376132761,0.00096965058757243,-0.001090830782496456,-8.967127756114644,-0.472686265421775,-67.0625
1772313079.9885223,0.41238026556544605,1.4575726032416043,-7.8321119433811,-0.39003899944526943,1.2952092185107071,9.762410447741404,0.001439611737531584,0.0019690294627989825,0.001090830782496456,-8.967127756114644,-0.472686265421775,-67.0625
1772313080.0137124,0.41238026556544605,1.4575726032416043,-7.8321119433811,-0.38749707570849345,1.292758122324236,9.76160412604544,0.0004996894376132761,-0.00096965058757243,-0.002181661564992912,-9.596663768441847,-1.5705236437174703,-65.875
1772313080.0428224,0.41238026556544605,1.4575726032416043,-7.8321119433811,-0.38580545385681764,1.2911269451926777,9.761067527963977,0.0004699611499591539,0.0014693400251857061,-0.001090830782496456,-9.596663768441847,-1.5705236437174703,-65.875
1772313080.0599346,0.41238026556544605,1.4575726032416043,-7.8321119433811,-0.38467969841118166,1.2900414150330681,9.760710427934958,-0.0004699611499591539,-0.0014693400251857061,0.0,-9.596663768441847,-1.5705236437174703,-65.875
1772313080.0842893,0.41238026556544605,1.4575726032416043,-7.8321119433811,-0.38467969841118166,1.2900414150330681,9.760710427934958,-0.0004699611499591539,-0.0014693400251857061,0.0,-9.596663768441847,-1.5705236437174703,-65.875
1772313080.1015477,0.41238026556544605,1.4575726032416043,-7.8321119433811,-0.38393052073762324,1.2893190068380145,9.760472781854714,0.0004996894376132761,-0.00096965058757243,0.001090830782496456,-8.967127756114644,-0.472686265421775,-65.0625
1772313080.1176023,0.41238026556544605,1.4575726032416043,-7.8321119433811,-0.38393052073762324,1.2893190068380145,9.760472781854714,0.0004996894376132761,-0.00096965058757243,0.001090830782496456,-8.967127756114644,-0.472686265421775,-65.0625
1772313080.1431735,0.41238026556544605,1.4575726032416043,-7.8321119433811,-0.38811316505446936,1.2909436487414228,9.754638137263258,0.0004996894376132761,-0.00096965058757243,0.0,-8.967127756114644,-0.472686265421775,-65.0625
1772313080.1678424,0.41238026556544605,1.4575726032416043,-7.8321119433811,-0.38811316505446936,1.2909436487414228,9.754638137263258,0.0004996894376132761,-0.00096965058757243,0.0,-8.967127756114644,-0.472686265421775,-65.0625
1772313080.1946478,0.41238026556544605,1.4575726032416043,-7.8321119433811,-0.38928012223549796,1.295866440994231,9.75308662853731,-0.0004996894376132761,0.00096965058757243,0.002181661564992912,-9.300469073736327,-0.6444668404768134,-66.25
1772313080.2409286,0.41238026556544605,1.4575726032416043,-7.8321119433811,-0.3900567192037066,1.2991425042472826,9.75205411681168,-2.9728287654122175e-05,0.002438990612758136,0.001090830782496456,-9.300469073736327,-0.6444668404768134,-66.25
1772313080.2702074,0.41238026556544605,1.4575726032416043,-7.8321119433811,-0.39057353581089294,1.3013226877461639,9.751366991792185,-0.0009993788752265522,0.00193930117514486,0.0,-9.064941181545288,0.6721914720705413,-66.6875
1772313080.302808,0.41238026556544605,1.4575726032416043,-7.8321119433811,-0.3909174714897556,1.302773575510424,9.75425482947472,-0.0004996894376132761,0.00096965058757243,0.0,-9.064941181545288,0.6721914720705413,-66.6875
1772313080.3185308,0.41238026556544605,1.4575726032416043,-7.8321119433811,-0.3909174714897556,1.302773575510424,9.75425482947472,-0.0004996894376132761,0.00096965058757243,0.0,-9.064941181545288,0.6721914720705413,-66.6875
1772313080.3389435,0.41238026556544605,1.4575726032416043,-7.8321119433811,-0.3926786907425766,1.3067126289610196,9.756176653193185,-0.0004996894376132761,0.00096965058757243,0.001090830782496456,-9.064941181545288,0.6721914720705413,-66.6875
1772313080.3578625,0.41238026556544605,1.4575726032416043,-7.8321119433811,-0.3923184285806696,1.3063605211793219,9.757455605409646,0.0004699611499591539,0.0014693400251857061,0.0,-9.472249648791365,-0.3111255228551293,-66.25
1772313080.4176297,0.41238026556544605,1.4575726032416043,-7.8321119433811,-0.3950521819872715,1.3045938634833527,9.75830673382287,0.00096965058757243,0.0004996894376132761,-0.001090830782496456,-9.472249648791365,-0.3111255228551293,-66.25
1772313080.47728,0.41238026556544605,1.4575726032416043,-7.8321119433811,-0.3953391304407874,1.3004446686705857,9.758873150274143,0.0,0.0,-0.001090830782496456,-9.138908331169683,-0.139344947800091,-67.0625
1772313080.5274143,0.41238026556544605,1.4575726032416043,-7.8321119433811,-0.3907048363895514,1.2983979346291081,9.759500945997338,-0.0004996894376132761,0.00096965058757243,0.0,-8.578229552222679,-0.27227559452423017,-65.875
1772313080.5749233,0.41238026556544605,1.4575726032416043,-7.8321119433811,-0.38947251665757815,1.2978536811316974,9.759667885136027,0.0014693400251857061,-0.0004699611499591539,0.002181661564992912,-8.578229552222679,-0.27227559452423017,-65.875
1772313080.61124,0.41238026556544605,1.4575726032416043,-7.8321119433811,-0.38947251665757815,1.2978536811316974,9.759667885136027,0.0014693400251857061,-0.0004699611499591539,0.002181661564992912,-8.578229552222679,-0.27227559452423017,-65.875
1772313080.656098,0.41238026556544605,1.4575726032416043,-7.8321119433811,-0.3886524216418634,1.297491486508881,9.759778981267992,0.0,0.0,-0.001090830782496456,-8.263298497955109,-0.8834013434973176,-67.0625
1772313080.7153485,0.41238026556544605,1.4575726032416043,-7.8321119433811,-0.3907169615276626,1.2955577090509292,9.75990211624466,0.001969029462798982,-0.001439611737531584,0.0,-9.138908331169683,-0.139344947800091,-65.875
1772313080.744777,0.41238026556544605,1.4575726032416043,-7.8321119433811,-0.39245408965250334,1.2944312088362668,9.759934859454255,0.0004996894376132761,-0.00096965058757243,0.0,-9.138908331169683,-0.139344947800091,-65.875
1772313080.7622666,0.41238026556544605,1.4575726032416043,-7.8321119433811,-0.39245408965250334,1.2944312088362668,9.759934859454255,0.0004996894376132761,-0.00096965058757243,0.0,-9.138908331169683,-0.139344947800091,-65.875
1772313080.7816622,0.41238026556544605,1.4575726032416043,-7.8321119433811,-0.3920777951140411,1.2907080316762822,9.759956649694473,0.0004996894376132761,-0.00096965058757243,0.0,-9.138908331169683,-0.139344947800091,-65.875
1772313080.8088584,0.41238026556544605,1.4575726032416043,-7.8321119433811,-0.3903862053517722,1.2927361366184364,9.759971150855927,-0.0004699611499591539,-0.0014693400251857061,-0.001090830782496456,-8.155591336244012,-0.5466534150461697,-66.6875
1772313080.8365536,0.41238026556544605,1.4575726032416043,-7.8321119433811,-0.3903862053517722,1.2927361366184364,9.759971150855927,-0.0004699611499591539,-0.0014693400251857061,-0.001090830782496456,-8.155591336244012,-0.5466534150461697,-66.6875
1772313080.8535576,0.41238026556544605,1.4575726032416043,-7.8321119433811,-0.39223397511223684,1.2925534839014723,9.759980801216885,0.0004699611499591539,0.0014693400251857061,-0.001090830782496456,-8.155591336244012,-0.5466534150461697,-66.6875
1772313080.8691065,0.41238026556544605,1.4575726032416043,-7.8321119433811,-0.3964371490978443,1.2908995966581462,9.759987223424302,0.0,0.0,0.0,-8.155591336244012,-0.5466534150461697,-66.6875
1772313080.9063888,0.41238026556544605,1.4575726032416043,-7.8321119433811,-0.3992343144327361,1.2897989531728438,9.759991497331596,0.0005294177252673983,-0.0034086412003305664,-0.001090830782496456,-8.652196701847075,-1.0838120143948624,-66.25
1772313080.9338384,0.41238026556544605,1.4575726032416043,-7.8321119433811,-0.39812229286576367,1.2905988211289192,9.75664922986184,-0.0014990683128398284,0.0029089517627172903,0.002181661564992912,-8.652196701847075,-1.0838120143948624,-66.25
1772313080.9472077,0.41238026556544605,1.4575726032416043,-7.8321119433811,-0.3973822549350383,1.291131124318577,9.761115211610928,0.0004699611499591539,0.0014693400251857061,-0.001090830782496456,-8.652196701847075,-1.0838120143948624,-66.25
1772313080.961585,0.41238026556544605,1.4575726032416043,-7.8321119433811,-0.3973822549350383,1.291131124318577,9.761115211610928,0.0004699611499591539,0.0014693400251857061,-0.001090830782496456,-8.652196701847075,-1.0838120143948624,-66.25
1772313080.9814012,0.41238026556544605,1.4575726032416043,-7.8321119433811,-0.39688976795890596,1.291485366145078,9.764087272576662,0.0004996894376132761,-0.00096965058757243,0.001090830782496456,-9.300469073736327,-0.6444668404768134,-64.6875
1772313081.012718,0.41238026556544605,1.4575726032416043,-7.8321119433811,-0.39688976795890596,1.291485366145078,9.764087272576662,0.0004996894376132761,-0.00096965058757243,0.001090830782496456,-9.300469073736327,-0.6444668404768134,-64.6875
1772313081.0430589,0.41238026556544605,1.4575726032416043,-7.8321119433811,-0.39656202337772983,1.291721110123474,9.766065145949261,0.0004996894376132761,-0.00096965058757243,-0.001090830782496456,-9.300469073736327,-0.6444668404768134,-64.6875
1772313081.0756783,0.41238026556544605,1.4575726032416043,-7.8321119433811,-0.3933704091691452,1.2934103290082148,9.764036286877113,0.0014693400251857061,-0.0004699611499591539,0.0,-8.377818881325135,-0.661173798416195,-66.25
1772313081.0917451,0.41238026556544605,1.4575726032416043,-7.8321119433811,-0.3933704091691452,1.2934103290082148,9.764036286877113,0.0014693400251857061,-0.0004699611499591539,0.0,-8.377818881325135,-0.661173798416195,-66.25
1772313081.1287694,0.41238026556544605,1.4575726032416043,-7.8321119433811,-0.39124642556599887,1.2945344853061984,9.76268610382844,0.0,0.0,0.0,-8.377818881325135,-0.661173798416195,-66.25
1772313081.154822,0.41238026556544605,1.4575726032416043,-7.8321119433811,-0.38685943435359754,1.2968149326654088,9.7651326837994,-0.0024687189004122586,0.002409262325104014,0.001090830782496456,-8.72819325309414,0.5644843103594438,-65.875
1772313081.1710005,0.41238026556544605,1.4575726032416043,-7.8321119433811,-0.38685943435359754,1.2968149326654088,9.7651326837994,-0.0024687189004122586,0.002409262325104014,0.001090830782496456,-8.72819325309414,0.5644843103594438,-65.875
1772313081.1974332,0.41238026556544605,1.4575726032416043,-7.8321119433811,-0.38393994070764736,1.2983325449086973,9.766760855439985,2.9728287654122175e-05,-0.002438990612758136,0.0,-8.72819325309414,0.5644843103594438,-65.875
1772313081.2210617,0.41238026556544605,1.4575726032416043,-7.8321119433811,-0.3835293841996995,1.3023160027547251,9.767844385478925,0.0,0.0,-0.001090830782496456,-7.766693132352048,-0.3462427441486248,-66.25
1772313081.2431235,0.41238026556544605,1.4575726032416043,-7.8321119433811,-0.38767083723124346,1.2989287778010556,9.768565462616017,-0.00096965058757243,-0.0004996894376132761,-0.001090830782496456,-7.766693132352048,-0.3462427441486248,-66.25
1772313081.2720597,0.41238026556544605,1.4575726032416043,-7.8321119433811,-0.38767083723124346,1.2989287778010556,9.768565462616017,-0.00096965058757243,-0.0004996894376132761,-0.001090830782496456,-7.766693132352048,-0.3462427441486248,-66.25
1772313081.3156147,0.4275809593377352,1.4585674427351345,-7.831675638188517,-0.40033874939267194,1.303546839881863,9.761567298053178,0.004937437800824517,-0.004818524650208028,0.028361600344907856,-8.766717085217099,-0.8615844693137398,-66.6875
1772313081.3395536,0.4275809593377352,1.4585674427351345,-7.831675638188517,-0.40033874939267194,1.303546839881863,9.761567298053178,0.004937437800824517,-0.004818524650208028,0.028361600344907856,-8.766717085217099,-0.8615844693137398,-66.6875
1772313081.3614237,0.46311969350938276,1.462640455141872,-7.824523795193624,-0.40489545364631513,1.304162559961181,9.751007684224566,0.005377670663129549,-0.0009101940122641858,-0.004363323129985824,-8.766717085217099,-0.8615844693137398,-66.6875
1772313081.402813,0.42952067662638294,1.4314264343080867,-7.82517419547742,-0.40998975377491803,1.2282465648706844,9.754015714302199,-0.021629595803134682,0.013396738500089286,-0.014180800172453928,-9.67266031968891,0.07777268103683543,-65.875
1772313081.4294991,0.6257142086181735,1.4626615961793685,-7.763733571133691,-0.41337995360344215,1.1777253181751899,9.78277841837552,-0.030291303063471504,-0.036471637493262356,0.004363323129985824,-9.67266031968891,0.07777268103683543,-65.875
1772313081.4597254,0.6257142086181735,1.4626615961793685,-7.763733571133691,-0.41337995360344215,1.1777253181751899,9.78277841837552,-0.030291303063471504,-0.036471637493262356,0.004363323129985824,-9.67266031968891,0.07777268103683543,-65.875
1772313081.5040145,0.4615522349578044,1.491113099120698,-7.795453738549464,-0.4156360937183114,1.1441039928586423,9.801919676635858,-0.011665535338523282,-0.003557282638601177,0.04363323129985824,-8.950420798175262,0.44996392698941856,-65.5
1772313081.5389717,0.39092728844782215,1.4460530942696075,-7.844469819185615,-0.4741073759328415,1.2541870437281757,9.781206853113055,0.00566926208716397,0.015193089689470337,-0.02181661564992912,-8.950420798175262,0.44996392698941856,-65.5
1772313081.5715897,0.39092728844782215,1.4460530942696075,-7.844469819185615,-0.4741073759328415,1.2541870437281757,9.781206853113055,0.00566926208716397,0.015193089689470337,-0.02181661564992912,-8.950420798175262,0.44996392698941856,-65.5
1772313081.6119204,0.38411482805599034,1.4471948718487555,-7.837657358793785,-0.37459723283290425,1.2633052949545107,9.767422700436027,-0.006228408100085491,-0.009345457876381635,-0.003272492347489368,-8.356002007141557,-0.15775521115420493,-64.6875
1772313081.6598976,0.3549300142059644,1.4471245577135945,-7.860029915996795,-0.42840846564110374,1.2978321324956776,9.731488607149986,-0.0009993788752265522,0.00193930117514486,-0.009817477042468103,-8.356002007141557,-0.15775521115420493,-64.6875
1772313081.6939006,0.22036570220004967,1.4291202009837263,-7.837847086440237,-0.35407362736368586,1.423958676539941,9.691660544191661,-0.0005888743005756425,0.008286622425846839,-0.05235987755982989,-9.339319002067228,0.24955325609187373,-66.25
1772313081.732061,-0.05328454574625231,1.4003211154788473,-7.853530344683084,-0.36682697130100533,1.5235204427148739,9.711175743853973,0.0127540990767122,-0.005698990374818091,-0.16798794050445423,-9.339319002067228,0.24955325609187373,-66.25
1772313081.7709713,-0.2956296555271127,1.3649076031204013,-7.844570697099399,-0.485333821712582,1.5330813316060996,9.744233561474093,-0.014485302238278206,-0.012373322789715415,-0.21380283336930536,-9.67266031968891,0.07777268103683543,-65.0625
1772313081.8272884,-0.5584413347562632,1.2378514655771404,-7.791432850361967,-0.4370150931074857,1.2926431767314996,9.766233169820264,-0.0919257821633224,0.056936138625379475,-0.0719948316447661,-9.67266031968891,0.07777268103683543,-65.0625
1772313081.8421776,-0.409614087620937,0.7216946800982803,-7.5519471335152595,-0.24726381487554053,1.2138479672618379,9.780873663422915,-0.1813290803034311,0.14707822352945454,0.06435901616729091,-9.488956606730747,-1.2337757152663225,-65.875
1772313081.8723814,-0.2086000949205309,0.46557535738035516,-7.412441533707069,-0.1383891154797675,1.2389952275353007,9.854173870809516,-0.236753496685837,0.17128406847860436,0.16253378659197193,-9.488956606730747,-1.2337757152663225,-65.875
1772313081.8925166,-0.2086000949205309,0.46557535738035516,-7.412441533707069,-0.1383891154797675,1.2389952275353007,9.854173870809516,-0.236753496685837,0.17128406847860436,0.16253378659197193,-9.488956606730747,-1.2337757152663225,-65.875
1772313081.933435,0.7693439817837099,-0.10072130134535638,-7.115959473054908,-0.06593421924196237,1.255730448333987,9.81263632391071,-0.21871091180895763,0.17199185592979652,0.32834006553143325,-8.339295049202175,0.7648949812569886,-64.75
1772313081.9646003,1.6320232712668645,-0.1516915079434298,-6.912799009087403,-0.04221618432685808,1.190268309055178,9.875311566551977,-0.13473904945477994,0.04714475643418601,0.5508695451607103,-8.339295049202175,0.7648949812569886,-64.75
1772313081.9971733,1.6320232712668645,-0.1516915079434298,-6.912799009087403,-0.04221618432685808,1.190268309055178,9.875311566551977,-0.13473904945477994,0.04714475643418601,0.5508695451607103,-8.339295049202175,0.7648949812569886,-64.75
1772313082.0337548,4.1425943861079695,0.13489602872861983,-6.534561938938281,-0.007314778630906084,1.0511872075938846,9.970543027718517,-0.07744744240267111,-0.09022430728941051,0.8410305333047675,-5.822202112892224,0.6558106103390979,-65.0625
1772313082.063713,6.830734487920761,1.0274553550672898,-6.100929029054946,0.03969974779317341,0.9708889594135046,10.120891405710028,-0.015647247507029206,-0.31730660595979066,0.8846637646046258,-5.822202112892224,0.6558106103390979,-65.0625
1772313082.0794058,6.830734487920761,1.0274553550672898,-6.100929029054946,0.03969974779317341,0.9708889594135046,10.120891405710028,-0.015647247507029206,-0.31730660595979066,0.8846637646046258,-5.822202112892224,0.6558106103390979,-65.0625
1772313082.1159854,8.763542262412585,2.1417019379277202,-5.666274773635615,0.05746987668719656,0.9217748820908905,10.220946571761951,0.030383637328700412,-0.4113924412419705,0.9108437033845407,-3.37429250617041,1.636047090643243,-64.25
1772313082.1626337,10.653404548901753,3.36955355359873,-4.884425939185579,0.06929569896082262,0.889090012272883,10.314293060738622,-0.034214829681789315,-0.5551259005737894,0.8759371183446542,-3.37429250617041,1.636047090643243,-64.25
1772313082.1867478,14.194295781277667,4.982975781687675,-3.9891882828869316,0.06824514002795368,0.8627415948212648,10.219193856159979,0.05988365953052424,-0.3900544368628702,1.1464631524037752,-2.6213934871915843,-0.5071512942993932,-61.875
1772313082.2191527,14.194295781277667,4.982975781687675,-3.9891882828869316,0.06824514002795368,0.8627415948212648,10.219193856159979,0.05988365953052424,-0.3900544368628702,1.1464631524037752,-2.6213934871915843,-0.5071512942993932,-61.875
1772313082.267893,16.100596244456828,5.716767166626963,-3.6202658782612316,0.04149632848427283,0.8957565828046216,10.145871062718657,0.06670094193118539,-0.38899560141233547,1.1726430911836903,-2.6213934871915843,-0.5071512942993932,-61.875
1772313082.302339,21.77763655737904,7.686463580192115,-1.7934893711975524,0.041990787350551416,1.0344349047394772,10.218477841143542,-0.10439652331874721,-0.2808223145363946,0.9773843811168246,0.33537071924435485,-2.2880521695699,-60.0
1772313082.346741,21.77763655737904,7.686463580192115,-1.7934893711975524,0.041990787350551416,1.0344349047394772,10.218477841143542,-0.10439652331874721,-0.2808223145363946,0.9773843811168246,0.33537071924435485,-2.2880521695699,-60.0
1772313082.37386,23.452853219505943,7.85485674389224,-1.369986897591863,0.06375641427009676,1.0643601074838005,10.299269701260322,-0.10234969189799947,-0.20859251845356883,1.0079276430267252,1.7563295826733423,-1.9073443965436567,-58.25
1772313082.4134145,25.27821308233543,7.727915154106186,-1.2628656971356451,0.06868253664319028,1.132033385139358,10.32292977629795,-0.032878935114500255,-0.024306412717125796,1.10501158266891,1.7563295826733423,-1.9073443965436567,-58.25
1772313082.4453588,27.880532040909774,7.642104152171038,-1.0452895462864857,0.13206904072427184,1.1553604822528278,10.248357275837513,0.03154685362257156,0.09356780046192605,1.1726430911836903,5.039947981279976,-5.277578099468725,-56.75
1772313082.4595346,29.769125051793043,7.725518949359449,-1.099921068992875,0.17064039961462363,1.2217074621178239,9.951191843468871,0.202549442557035,0.033204675253575476,1.1115565673638885,5.039947981279976,-5.277578099468725,-56.75
1772313082.4925463,31.63489466552382,8.019619301254426,-1.0686430430468359,0.24377665249915373,1.4220326234759484,9.726670674124371,0.17576734846187003,-0.09104089601132566,1.1137382289288815,5.039947981279976,-5.277578099468725,-56.75
1772313082.5198827,31.63489466552382,8.019619301254426,-1.0686430430468359,0.24377665249915373,1.4220326234759484,9.726670674124371,0.17576734846187003,-0.09104089601132566,1.1137382289288815,5.039947981279976,-5.277578099468725,-56.75
1772313082.545215,34.079105390028325,8.696471827332909,-0.8232661113942735,0.28172167450447494,1.5761613075378142,9.507006998137696,0.16985329759584616,-0.24625582950323632,1.0842857978014773,9.007282069277299,-9.701689336114393,-56.0
1772313082.5966542,36.91797124813019,9.345271392481019,-0.07526431383024021,0.27607094616578093,1.636465023486345,9.173497019962719,-0.011298684006780331,-0.3138385081841519,1.2937253080407969,9.007282069277299,-9.701689336114393,-56.0
1772313082.6229005,40.9353058289395,9.468569633860236,1.1447074105179458,0.21663435196222405,1.5801680542807564,8.93482429650124,-0.1399807326097726,-0.08318058149253,1.435533309765336,9.73528369945102,-14.388907447794756,-56.75
1772313082.6383362,40.9353058289395,9.468569633860236,1.1447074105179458,0.21663435196222405,1.5801680542807564,8.93482429650124,-0.1399807326097726,-0.08318058149253,1.435533309765336,9.73528369945102,-14.388907447794756,-56.75
1772313082.6646278,44.320301096294315,9.04860744336018,1.5157531523858339,0.1816769641716715,1.5337825385999126,8.77599026518664,0.02524191458965741,0.21057989329900834,1.5249814339300454,9.73528369945102,-14.388907447794756,-56.75
1772313082.6904633,44.320301096294315,9.04860744336018,1.5157531523858339,0.1816769641716715,1.5337825385999126,8.77599026518664,0.02524191458965741,0.21057989329900834,1.5249814339300454,9.73528369945102,-14.388907447794756,-56.75
1772313082.7227142,48.55071748347176,8.228713404785935,1.2065765305503042,0.30205303744412504,1.5016721072762378,8.670287991639162,0.19271252874578712,0.3999634611795601,1.5195272800175632,12.478010791671558,-14.662959172108756,-58.0
1772313082.740292,50.998657394879345,7.808540489797804,0.6907041902202791,0.3821619695180965,1.480302973927353,8.737093889365173,0.3881474060256198,0.45649920711018216,1.4835298641951802,12.478010791671558,-14.662959172108756,-58.0
1772313082.7610376,52.61496045546024,7.515894831991802,0.16983558366329832,0.4494469019431653,1.4243618365289634,8.804968249982293,0.3748936175112943,0.46316784807257266,1.4420782944603148,12.478010791671558,-14.662959172108756,-58.0
1772313082.8115776,55.69023421428082,7.065406267275607,-0.7021607923593337,0.49035658274959854,1.3362194132269116,8.850137878766699,0.42861086756728145,0.45894388917544704,1.3668109704680593,16.19927105878151,-17.245176634761503,-60.75
1772313082.8357768,55.69023421428082,7.065406267275607,-0.7021607923593337,0.49035658274959854,1.3362194132269116,8.850137878766699,0.42861086756728145,0.45894388917544704,1.3668109704680593,16.19927105878151,-17.245176634761503,-60.75
1772313082.8617234,58.61158121948525,6.736466491798473,-1.5496208841268502,0.4436997418119477,1.2018565596086577,8.880197762144906,0.40173389715664737,0.3825084795781362,1.2370021073509812,16.19927105878151,-17.245176634761503,-60.75
1772313082.8926554,61.5488563483177,6.498346582298525,-2.5466895785100347,0.40237961780586334,1.0958574004014978,9.174501438742393,0.37523770303301,0.3148593818442855,0.9817477042468103,21.757641279848123,-21.482177547619543,-65.0625
1772313082.9292355,62.85819262859279,6.398498273596806,-3.1465220900187205,0.317234738839534,0.8450826339769285,9.437259482076929,0.3275224176808889,0.266954343861226,0.7134033317526822,21.757641279848123,-21.482177547619543,-65.0625
1772313082.9438052,63.58127620425734,6.361692899957093,-3.4714227693303563,0.21299571140271917,0.6536774858502524,9.612122024716395,0.26673171354036707,0.21108400316400827,0.6228643768054763,21.757641279848123,-21.482177547619543,-65.0625
1772313082.9566686,63.58127620425734,6.361692899957093,-3.4714227693303563,0.21299571140271917,0.6536774858502524,9.612122024716395,0.26673171354036707,0.21108400316400827,0.6228643768054763,21.757641279848123,-21.482177547619543,-65.0625
1772313082.978615,64.49955726505237,6.319935887141669,-3.7617015198855515,0.1301994537653654,0.5231436661563054,9.725145981793052,0.1849002878972861,0.16032377854103297,0.5530512067257032,23.57326045582915,-25.960468461328702,-70.25
1772313083.0017257,65.11896607306011,6.168767669495773,-3.8749213485675424,0.03228528393721851,0.512053633532671,9.776946380716003,0.034331200782165554,0.1453160210551143,0.35779249665883756,23.57326045582915,-25.960468461328702,-70.25
1772313083.0300803,65.54840272753573,5.857219548913775,-4.001422346257241,-0.03287550231046916,0.5046733407054238,9.714410728038594,0.00510569564685577,0.2615608698656962,0.2301652951067522,25.73689850574857,-26.884495862946686,-71.5
1772313083.0571346,65.96930022534873,5.254644213251944,-4.165966615386938,-0.11336249382654302,0.47686799371404054,9.67279394975079,0.0022207807192858144,0.29811600076941414,0.22471114119426994,25.73689850574857,-26.884495862946686,-71.5
1772313083.0877433,65.96930022534873,5.254644213251944,-4.165966615386938,-0.11336249382654302,0.47686799371404054,9.67279394975079,0.0022207807192858144,0.29811600076941414,0.22471114119426994,25.73689850574857,-26.884495862946686,-71.5
1772313083.1174767,66.79878575826832,4.6620505779096035,-4.567036828545107,-0.21891642299859143,0.4278083318364739,9.859185597958573,0.06768136807174509,0.3711187323312471,0.3817907738737596,27.109113704566205,-27.09139365929522,-72.6875
1772313083.1409078,67.9907921116964,3.8359006655051235,-5.020699626789106,-0.29069371764849294,0.3981331787402439,10.110341402587851,0.12121455694930078,0.4220219069399862,0.5170537909033202,27.109113704566205,-27.09139365929522,-72.6875
1772313083.1734,67.9907921116964,3.8359006655051235,-5.020699626789106,-0.29069371764849294,0.3981331787402439,10.110341402587851,0.12121455694930078,0.4220219069399862,0.5170537909033202,27.109113704566205,-27.09139365929522,-72.6875
1772313083.2233233,70.03077850274798,2.8079925457802593,-5.477918099371465,-0.3040375012716995,0.37730818169804914,10.277482784974467,0.04446921054531501,0.3542482046030122,0.5115996369908379,30.198808557726284,-28.311615755618725,-75.875
1772313083.246563,70.83161331482525,2.5288952045869557,-5.569490119754966,-0.30319410636083294,0.42490760946737277,10.224803034202532,-0.0021758564512577203,0.21853950456065982,0.4930555136883981,30.198808557726284,-28.311615755618725,-75.875
1772313083.26261,71.73294147781075,2.272484801277769,-5.739924823988074,-0.25848609845532394,0.5169662134480202,10.096082120730241,0.01122088204883157,0.24016910036379452,0.5366887449882564,30.198808557726284,-28.311615755618725,-75.875
1772313083.3001416,71.73294147781075,2.272484801277769,-5.739924823988074,-0.25848609845532394,0.5169662134480202,10.096082120730241,0.01122088204883157,0.24016910036379452,0.5366887449882564,30.198808557726284,-28.311615755618725,-75.875
1772313083.3360617,73.21415604399752,1.9401501712490963,-5.988816970120949,-0.23929488127083678,0.708261333177938,9.916756662916308,0.04205298574258407,0.19224571699809453,0.5006913291658733,35.337621077435756,-30.233637708479094,-74.25
1772313083.351869,74.07341769485758,1.79624724263774,-5.925837750919062,-0.23022615606660907,0.8938684973708939,9.797417573937754,-0.08429318206586625,0.11118280640663411,0.49741883681838395,35.337621077435756,-30.233637708479094,-74.25
1772313083.365771,74.7299230068271,1.6421908679754227,-5.7838361302508225,-0.2241910207474939,1.017387991773429,9.811661871132442,-0.18047265141396834,0.11684068558878448,0.5672320068981571,35.337621077435756,-30.233637708479094,-74.25
1772313083.4011657,74.7299230068271,1.6421908679754227,-5.7838361302508225,-0.2241910207474939,1.017387991773429,9.811661871132442,-0.18047265141396834,0.11684068558878448,0.5672320068981571,35.337621077435756,-30.233637708479094,-74.25
1772313083.4344163,76.59019022534684,1.0978174399166687,-5.910202196248501,-0.2327805793625976,1.0291189293216902,10.175723132772136,-0.04047357342155524,0.2785686561271881,0.607592745850526,37.35810864814265,-30.87988067874568,-73.5
1772313083.463523,78.68623846611642,0.9222469642261395,-6.220008470069031,-0.29940808163887694,1.0017732214543675,10.41800183556259,0.07549106687000585,0.2107044979021316,0.9512044423369096,37.35810864814265,-30.87988067874568,-73.5
1772313083.4883192,80.8622640035813,1.1704183846915444,-6.552159557346821,-0.34967749457580466,0.8563349871481237,10.238034211692616,0.15581646172262,0.10483990558331881,1.0101093045917182,38.40549905641226,-31.957278392064588,-73.5
1772313083.5136337,80.8622640035813,1.1704183846915444,-6.552159557346821,-0.34967749457580466,0.8563349871481237,10.238034211692616,0.15581646172262,0.10483990558331881,1.0101093045917182,38.40549905641226,-31.957278392064588,-73.5
1772313083.5410175,82.5244295630481,1.720089963619459,-6.22561675312316,-0.5532828329215154,0.8483316772507412,9.979495144717403,-0.06702038326572748,-0.2652427571074207,0.7057675162752071,38.40549905641226,-31.957278392064588,-73.5
1772313083.5692658,82.5244295630481,1.720089963619459,-6.22561675312316,-0.5532828329215154,0.8483316772507412,9.979495144717403,-0.06702038326572748,-0.2652427571074207,0.7057675162752071,38.40549905641226,-31.957278392064588,-73.5
1772313083.5929902,84.57156223527615,2.5582745767377975,-5.525324002887834,-0.5818186513107768,0.9060523778341565,9.865930226400176,-0.10028009466722451,-0.2983354816880066,0.7897614865274342,38.41126116507233,-37.01668774969753,-73.0625
1772313083.6112647,85.40210134719744,2.802150162335816,-4.8803314591490965,-0.37969312056206417,1.0922807720921126,9.827150270643834,-0.46911544030161095,-0.3779632009693221,0.7494007475750653,38.41126116507233,-37.01668774969753,-73.0625
1772313083.6366994,85.40210134719744,2.802150162335816,-4.8803314591490965,-0.37969312056206417,1.0922807720921126,9.827150270643834,-0.46911544030161095,-0.3779632009693221,0.7494007475750653,38.41126116507233,-37.01668774969753,-73.0625
1772313083.6604254,86.54540249188481,2.8330715552880035,-4.1852465134430235,-0.24518083773891786,1.216213688163311,9.921766664751976,-0.257325528063557,-0.022163433955788767,0.6599526234103559,38.41126116507233,-37.01668774969753,-73.0625
1772313083.6849768,87.60870381125494,2.662253159248247,-4.021288095766454,-0.31333383091984335,1.1007800008695594,9.98473281809657,-0.10783235075649167,0.1211411754187387,0.6250460383704692,37.72413886485218,-35.683322479210794,-73.5
1772313083.703573,88.72331142393568,2.563149430603067,-3.9957216398882474,-0.35868888656293163,1.0239601714543451,9.702160254159397,-0.03830340842280432,0.10052234139584418,0.6632251157578453,37.72413886485218,-35.683322479210794,-73.5
1772313083.7352986,90.08224850011847,2.4882543053669997,-4.0067542003336545,-0.41420998740434634,1.0877275691498025,9.386997124523436,-0.011147500518269486,0.07402045581970003,0.5857761302005968,37.11504251750176,-38.4580862781033,-74.25
1772313083.7610552,90.62209795745912,2.299078594036576,-4.057557737046322,-0.30410696510572593,1.2172336004686062,9.177259582353543,-0.031521545762304114,0.144513357288453,0.3097959422289935,37.11504251750176,-38.4580862781033,-74.25
1772313083.7875817,90.62209795745912,2.299078594036576,-4.057557737046322,-0.30410696510572593,1.2172336004686062,9.177259582353543,-0.031521545762304114,0.144513357288453,0.3097959422289935,37.11504251750176,-38.4580862781033,-74.25
1772313083.8098161,90.7574464912615,2.161071468389,-4.14314653219994,-0.23083463369734172,1.3034184176341097,9.064442484619894,0.027894694668501203,0.1530434974680396,0.07853981633974483,37.11504251750176,-38.4580862781033,-74.25
1772313083.8415778,90.69863272539878,2.188056529466833,-4.603590974664018,-0.22187555165860842,1.2739233943778097,8.956113789629844,0.08811232784084772,-0.10430606743066473,0.016362461737446838,39.21290384866251,-38.57228056526539,-74.25
1772313083.8754852,90.69863272539878,2.188056529466833,-4.603590974664018,-0.22187555165860842,1.2739233943778097,8.956113789629844,0.08811232784084772,-0.10430606743066473,0.016362461737446838,39.21290384866251,-38.57228056526539,-74.25
1772313083.918614,90.77054077438534,2.9378164581425477,-4.7584048324322685,-0.23169548030014586,1.2372370820790344,9.20829714845943,0.18959735734663744,-0.22503673827475257,0.04363323129985824,40.78382641296296,-39.02833269712282,-75.0625
1772313083.9445298,90.9006682091185,3.6398157121289287,-4.974927697604929,-0.2259718619108896,1.1890347202494893,9.389502803517095,0.2278356177416267,-0.28018790861576454,0.09381144729469522,40.78382641296296,-39.02833269712282,-75.0625
1772313083.9660246,90.96072152718611,3.9765736830410727,-5.046603171296819,-0.21324234625696975,1.1615535886092432,9.590375823733838,0.18834180678753737,-0.2821329012434162,0.07744898555724837,40.58714844910282,-41.23901110623886,-79.0625
1772313083.9958842,90.90525450226303,4.607567127457747,-4.994301105653995,-0.28624073111504567,1.1991236280042286,9.814372590887041,0.040818929968391114,-0.226850163821654,-0.04908738521234052,40.58714844910282,-41.23901110623886,-79.0625
1772313084.0122604,90.90525450226303,4.607567127457747,-4.994301105653995,-0.28624073111504567,1.1991236280042286,9.814372590887041,0.040818929968391114,-0.226850163821654,-0.04908738521234052,40.58714844910282,-41.23901110623886,-79.0625
1772313084.025572,90.77906156713289,4.72988067814507,-4.953302112414192,-0.2887766130779157,1.251616915796529,10.284570661122318,0.021492337269877676,-0.08218816509493038,-0.1308996938995747,40.58714844910282,-41.23901110623886,-79.0625
1772313084.0385313,90.77906156713289,4.72988067814507,-4.953302112414192,-0.2887766130779157,1.251616915796529,10.284570661122318,0.021492337269877676,-0.08218816509493038,-0.1308996938995747,40.58714844910282,-41.23901110623886,-79.0625
1772313084.0665116,90.27197586030344,4.544978411485446,-4.909297347230875,-0.3559676807075058,1.2766214923880441,10.802376262614935,-0.0944539576390429,0.06422338217599977,-0.18762289458939044,39.93068564634784,-42.421035466647346,-81.75
1772313084.118534,90.27197586030344,4.544978411485446,-4.909297347230875,-0.3559676807075058,1.2766214923880441,10.802376262614935,-0.0944539576390429,0.06422338217599977,-0.18762289458939044,39.93068564634784,-42.421035466647346,-81.75
1772313084.1547778,89.99886480261272,3.7653869150819164,-5.313605388493369,-0.37932585714430084,1.2428091623154789,10.78485581768905,0.02526025997229794,0.28912728234488194,-0.07853981633974483,40.930709599212896,-41.90569374148223,-84.25
1772313084.1884785,89.91854490746272,3.246518165886757,-5.949766416810986,-0.40612633038789214,1.1618227075411762,10.458755656819044,0.17106458756001192,0.33481281063377577,-0.04363323129985824,40.930709599212896,-41.90569374148223,-84.25
1772313084.2118917,89.89715274835957,2.7545229680977545,-6.355125851612775,-0.500908190274956,1.0381690787426507,10.22835919570826,0.08064925661454293,0.3078536178378062,-0.0272707695624114,41.65294912072654,-41.533502495529646,-83.875
1772313084.238842,90.01423922636357,1.9117790266385242,-6.680789052740949,-0.5639844592470477,0.9558789700787726,10.054962254292224,-0.008421338908863615,0.33067361617222585,0.028361600344907856,41.65294912072654,-41.533502495529646,-83.875
1772313084.2541926,90.01423922636357,1.9117790266385242,-6.680789052740949,-0.5639844592470477,0.9558789700787726,10.054962254292224,-0.008421338908863615,0.33067361617222585,0.028361600344907856,41.65294912072654,-41.533502495529646,-83.875
1772313084.2823234,90.07934633265256,1.5797472030144681,-6.761106865886568,-0.5622700933769333,0.9988942465366613,9.939568526750604,-0.10115674731647424,0.2939287326375696,0.017453292519943295,41.65294912072654,-41.533502495529646,-83.875
1772313084.313782,89.93027180676395,0.8520971676494428,-6.552174982088415,-0.5343676673824643,1.0413114376122234,9.812598614494263,-0.19308380050491675,0.15083791272912778,-0.12435470920459599,43.67343669143343,-42.17974546579623,-80.6875
1772313084.3324275,89.93027180676395,0.8520971676494428,-6.552174982088415,-0.5343676673824643,1.0413114376122234,9.812598614494263,-0.19308380050491675,0.15083791272912778,-0.12435470920459599,43.67343669143343,-42.17974546579623,-80.6875
1772313084.3660514,89.3668470694995,0.5445575121941287,-6.452510443933758,-0.5587042637890974,1.1527977122687865,9.728101556234522,-0.06406777826010222,0.052884858001671815,-0.28907015736156083,43.67343669143343,-42.17974546579623,-80.6875
1772313084.4053984,88.70636307702492,0.5617967426213031,-5.7383272786236414,-0.5099949893161103,1.0572273713143563,9.68190504297861,-0.22518537971302313,-0.1774024042828467,-0.23561944901923448,46.8773258317556,-41.30210623095899,-79.875
1772313084.4198594,88.70636307702492,0.5617967426213031,-5.7383272786236414,-0.5099949893161103,1.0572273713143563,9.68190504297861,-0.22518537971302313,-0.1774024042828467,-0.23561944901923448,46.8773258317556,-41.30210623095899,-79.875
1772313084.4494526,88.36056633492869,0.7182972529387518,-5.442421541568106,-0.6071722919165395,1.0698435097230525,9.651161779455666,-0.09095171114836328,-0.18308432030014443,-0.20507618710933373,46.8773258317556,-41.30210623095899,-79.875
1772313084.4697971,88.28425551350571,0.8184153937131501,-5.219007479922215,-0.6718427012555274,1.0782394089025396,9.717675385396207,-0.1276257552026977,-0.17621327277668183,-0.037088246604879506,46.8773258317556,-41.30210623095899,-79.875
1772313084.5142474,88.38622449094741,1.0238826837582509,-4.994059540238916,-0.6533481948861147,1.19079921395441,9.815461234461084,-0.04003588260949045,-0.11757693030251061,0.07526732399225546,45.465934608399124,-37.88109946179989,-80.25
1772313084.540723,88.67804084142621,1.0891324724721019,-5.06614902928187,-0.6410403074944437,1.2657065068410205,9.883881736381573,-0.0026654340089775136,-0.061504183044220805,0.20507618710933373,45.465934608399124,-37.88109946179989,-80.25
1772313084.5593016,89.07200934785692,1.0992284688463378,-5.254468407429672,-0.6328495459233974,1.3155564734877707,9.929414816102572,-0.01596033371597071,0.028589828189559623,0.25089107997418486,45.711682333078556,-37.402904359550945,-81.0625
1772313084.598723,89.68984877794661,0.8121271456519829,-4.809200415944018,-0.6549632425527018,1.2780788353568173,9.876088779336083,-0.23755743147761843,0.03710985648925277,0.19744037163185854,45.711682333078556,-37.402904359550945,-81.0625
1772313084.6438372,90.0977629969284,0.6291538551972105,-4.264074378708607,-0.7066205488949535,1.215285358070256,9.800459557071015,-0.2232928811830528,-0.05248446530691439,0.2007128639793479,45.12237345828905,-37.21441682655653,-80.25
1772313084.6901062,90.0977629969284,0.6291538551972105,-4.264074378708607,-0.7066205488949535,1.215285358070256,9.800459557071015,-0.2232928811830528,-0.05248446530691439,0.2007128639793479,45.12237345828905,-37.21441682655653,-80.25
1772313084.7130637,90.69415694960759,0.5764311982168923,-3.953219970928583,-0.7149482329064315,1.1229474349188515,9.763509601316658,-0.029975674804289764,0.017685845425029916,0.17016960206944712,45.12237345828905,-37.21441682655653,-80.25
1772313084.7456524,91.10782756508289,0.5029676451665694,-4.088054174198444,-0.669940648123444,1.087547254853148,9.698778478032352,0.01110069787309496,0.04989810428100576,0.19416787928436915,46.045023650700244,-37.23112378449591,-79.875
1772313084.7592406,91.35385134843013,0.4042175943643068,-4.11316064941318,-0.6120593904594235,1.1047236981292203,9.695841979068506,-0.09757100741533904,0.07979724815246687,0.20725784867432664,46.045023650700244,-37.23112378449591,-79.875
1772313084.7809162,91.70432413207254,0.26439125811077,-4.224270277041019,-0.621389613525803,1.114075111654592,9.7440644474207,-0.009475753932011725,0.09697075020974981,0.19634954084936207,46.045023650700244,-37.23112378449591,-79.875
1772313084.8303144,92.16938981796233,0.21545436225887302,-4.497544269084097,-0.5889432226885929,1.1402187136007573,9.776155961428817,0.08623375426613122,0.08984353100241373,0.2792526803190927,46.63773913631921,-37.699099054256465,-79.5
1772313084.8449638,92.51646262488568,0.2909646838271392,-4.9309931990785145,-0.6060060620988288,1.1376966479455966,9.720574936247171,0.2083970743701237,0.033763821266497004,0.17453292519943295,46.63773913631921,-37.699099054256465,-79.5
1772313084.869031,92.62367838923608,0.43714220553318806,-5.164289939794388,-0.6112318555197312,1.1241242260215714,9.683586384869521,0.25604024921680285,-0.03249373840011679,0.08399397025222712,46.63773913631921,-37.699099054256465,-79.5
1772313084.8907137,92.62367838923608,0.43714220553318806,-5.164289939794388,-0.6112318555197312,1.1241242260215714,9.683586384869521,0.25604024921680285,-0.03249373840011679,0.08399397025222712,46.63773913631921,-37.699099054256465,-79.5
1772313084.9379673,92.27629212813916,1.111038707469618,-5.739530181136952,-0.745286137246379,0.9201380641610627,9.650410618941399,0.09760642715549997,-0.1227294285945409,-0.1712604328519436,46.95267019058679,-38.31022480322955,-79.875
1772313084.9662447,92.27629212813916,1.111038707469618,-5.739530181136952,-0.745286137246379,0.9201380641610627,9.650410618941399,0.09760642715549997,-0.1227294285945409,-0.1712604328519436,46.95267019058679,-38.31022480322955,-79.875
1772313084.999734,91.94521801651435,1.0585236665016415,-5.699062555587602,-0.7415739362809299,0.8771483204672633,9.653618374025905,-0.05362237374051807,-0.0435862027704647,-0.20398535632683726,46.95267019058679,-38.31022480322955,-79.875
1772313085.0226288,91.22989666220771,0.6992751929429946,-5.544260884443694,-0.7092773055466937,0.8563831236689851,9.659098210908992,-0.09974244343921009,0.05781660434998953,-0.28579766501407144,49.67869032486794,-39.50692671995475,-79.5
1772313085.0448086,91.22989666220771,0.6992751929429946,-5.544260884443694,-0.7092773055466937,0.8563831236689851,9.659098210908992,-0.09974244343921009,0.05781660434998953,-0.28579766501407144,49.67869032486794,-39.50692671995475,-79.5
1772313085.0757165,90.85519875031642,0.5159519422581709,-5.665496819449244,-0.6819284148182897,0.853108126565749,9.69954120992141,-0.025560692251105733,0.17580973067965786,-0.272707695624114,49.67869032486794,-39.50692671995475,-79.5
1772313085.103483,90.50368823103155,0.6315904322150747,-5.642753045151425,-0.6879718841040515,0.8760666893855952,9.726455573986275,-0.04841168989829966,-0.11084883276481185,-0.21380283336930536,48.80137718623864,-38.62312645587445,-80.25
1772313085.1339583,90.18540596904427,0.6478460403996281,-5.723560763446994,-0.5076365066443026,0.9863500583124203,9.864790804081794,-0.019892701189061876,-0.00902413816469309,-0.10690141668465268,48.80137718623864,-38.62312645587445,-80.25
1772313085.1548524,90.01532928898102,0.7033376699238059,-5.775337029397743,-0.5273800084180658,0.987722715061369,9.813011550989856,0.062271427070721176,-0.025586000111373172,-0.10690141668465268,48.80137718623864,-38.62312645587445,-80.25
1772313085.2074268,90.01532928898102,0.7033376699238059,-5.775337029397743,-0.5273800084180658,0.987722715061369,9.813011550989856,0.062271427070721176,-0.025586000111373172,-0.10690141668465268,48.80137718623864,-38.62312645587445,-80.25
1772313085.242031,89.95313273806717,0.7585574521542213,-5.871737963059833,-0.4180584467089666,1.0065858431019963,9.858835717444991,0.05242627975672627,-0.01838794142371525,-0.028361600344907856,48.619376778695205,-37.45132192795436,-80.6875
1772313085.2654219,90.00628821064488,0.877400064933726,-5.980999192705641,-0.46623447628304365,0.9982158999393457,9.80904850735574,0.10238384061304028,-0.03436662052232648,0.07417649320975901,48.619376778695205,-37.45132192795436,-80.6875
1772313085.2861156,90.00628821064488,0.877400064933726,-5.980999192705641,-0.46623447628304365,0.9982158999393457,9.80904850735574,0.10238384061304028,-0.03436662052232648,0.07417649320975901,48.619376778695205,-37.45132192795436,-80.6875
1772313085.3045948,90.24140381647354,1.2478794579188177,-6.121701524292826,-0.47693357514550755,0.9584960839520379,9.705668329347214,0.09363863994224789,-0.1174112145067196,0.10144726277217041,48.6582267070261,-38.34534202452305,-81.5
1772313085.3386366,90.43068497247158,1.6191611997028625,-6.2923639021306,-0.5024417127283252,0.9677450363234078,9.636869975714795,0.16116313307297533,-0.09365825635000852,0.10799224746714914,48.6582267070261,-38.34534202452305,-81.5
1772313085.363768,90.43068497247158,1.6191611997028625,-6.2923639021306,-0.5024417127283252,0.9677450363234078,9.636869975714795,0.16116313307297533,-0.09365825635000852,0.10799224746714914,48.6582267070261,-38.34534202452305,-81.5
1772313085.3986778,90.68609758565519,1.9197485930561562,-6.499324425314471,-0.5300465861977903,1.0472827122440704,9.735562928846585,0.06797610889804608,-0.05332509086397685,0.038179077387375956,47.97313380842862,-39.47180949866125,-79.875
1772313085.417989,90.64933840201175,1.981670409947809,-6.6166729310258585,-0.5278819665198431,1.0733310931056383,9.753772737249331,0.07596544844735169,-0.02834631043581985,-0.02399827721492203,47.97313380842862,-39.47180949866125,-79.875
1772313085.4507022,90.64933840201175,1.981670409947809,-6.6166729310258585,-0.5278819665198431,1.0733310931056383,9.753772737249331,0.07596544844735169,-0.02834631043581985,-0.02399827721492203,47.97313380842862,-39.47180949866125,-79.875
1772313085.4880753,90.6372952809427,2.0705954493670133,-6.66866721019325,-0.5299619238563744,1.1340097153037934,9.739130267665915,0.045317405932030715,-0.035550060575984574,0.002181661564992912,48.345325054381206,-40.1940490201749,-80.25
1772313085.5267174,90.63913591973396,2.238934050358535,-6.7544306642900045,-0.5246872461780118,1.2417958989244047,9.729385867725256,0.054192902658453196,-0.04324780870125577,-0.015271630954950384,48.345325054381206,-40.1940490201749,-80.25
1772313085.5487885,90.39446212611726,2.2305248710500307,-6.7557077532964405,-0.49512733079570304,1.2629768346070576,9.70617551988023,-0.026269750727417978,-0.006174642977284046,-0.10035643198967395,48.488475533593736,-40.4718334515263,-81.5
1772313085.5927036,90.07200086477862,2.1398051411170638,-6.8057993332684275,-0.4819495287174453,1.318883892511019,9.690729292665939,-0.0040272437885603305,0.010196195313337576,-0.14944381720201447,48.488475533593736,-40.4718334515263,-81.5
1772313085.6209261,89.83105565706819,2.2017241989886056,-6.8951259425558415,-0.4716475147395082,1.3531159111723887,9.677104889293172,0.030005403091943886,-0.020124836037788054,-0.11017390903214205,48.01198373675952,-40.36582959522994,-81.75
1772313085.65455,89.81370734425339,2.234279344078338,-6.883378877714398,-0.4558711279653512,1.3804939388964799,9.604480878604086,0.100290206547118,0.01732214349555353,-0.011999138607461015,48.01198373675952,-40.36582959522994,-81.75
1772313085.7053947,89.81370734425339,2.234279344078338,-6.883378877714398,-0.44537211880093724,1.3987137105142535,9.556150410753855,0.0017906597368742496,0.013194331939017232,0.04254240051736178,47.84020316170448,-40.03248827760825,-81.5
1772313085.751539,89.96743846541722,2.2670216885789753,-6.972587386206353,-0.4572115187890806,1.3597422158305368,9.61765015209117,0.056394066969978354,-0.023706155511536556,0.02399827721492203,47.84020316170448,-40.03248827760825,-81.5
1772313085.777598,89.96743846541722,2.2670216885789753,-6.972587386206353,-0.4572115187890806,1.3597422158305368,9.61765015209117,0.056394066969978354,-0.023706155511536556,0.02399827721492203,47.84020316170448,-40.03248827760825,-81.5
1772313085.824647,89.9945732043965,2.431522863734772,-7.037346832228179,-0.4638302752638925,1.3988589928848274,9.763811710921066,-0.03640648946544731,-0.015079867991360648,-0.011999138607461015,48.01198373675952,-40.36582959522994,-80.5625
1772313085.867715,90.00766131275633,2.3310035230672876,-6.992059182890283,-0.44769533856765664,1.4124677826929548,9.64545774128219,-0.05072480488281438,0.03889924520100689,-0.007635815477475192,45.71371173470123,-39.862737104175885,-79.5
1772313085.9174354,90.30433924065525,2.100189314280391,-6.981912549728161,-0.42378740772952184,1.322942833457762,9.55331404975871,-0.011909053092263061,0.0564478320927798,0.08726646259971647,45.71371173470123,-39.862737104175885,-79.5
1772313085.934494,90.41842039830097,2.1039026650554846,-6.9077848587098485,-0.40787694682582976,1.263364979800951,9.505373899191587,0.07986808763278873,0.011706646531191002,0.1189005552921137,45.71371173470123,-39.862737104175885,-79.5
1772313085.976846,90.41842039830097,2.1039026650554846,-6.9077848587098485,-0.40787694682582976,1.263364979800951,9.505373899191587,0.07986808763278873,0.011706646531191002,0.1189005552921137,45.71371173470123,-39.862737104175885,-79.5
1772313086.033959,90.46199494807651,2.066597190378988,-6.8822497863105125,-0.3838174930584919,1.3210896738274855,9.701920412890324,-0.013253788514325477,0.0066686409623905206,0.00545415391248228,49.17356843219122,-39.3453659773881,-81.5
1772313086.077811,90.46199494807651,2.066597190378988,-6.8822497863105125,-0.3838174930584919,1.3210896738274855,9.701920412890324,-0.013253788514325477,0.0066686409623905206,0.00545415391248228,49.17356843219122,-39.3453659773881,-81.5
1772313086.1140153,90.36366875359448,2.0753910261417037,-6.9079571840740615,-0.3668657156013844,1.307190100283251,9.748109577228565,0.006525690976626711,-0.015044448251199726,-0.015271630954950384,48.17354447932617,-39.86070770255321,-80.5625
1772313086.1302176,90.36330482228767,2.076730292655123,-6.9235182341710315,-0.38856653127841856,1.3035224412593172,9.77884795012889,0.0030575932009879007,-0.010695884750950853,-0.006544984694978736,48.17354447932617,-39.86070770255321,-80.5625
1772313086.14292,90.34770893617839,2.0735062621791824,-6.933486543036308,-0.39381417829418336,1.283240632043572,9.785923547094656,0.004348563500248874,0.0034680977756388104,-0.014180800172453928,48.17354447932617,-39.86070770255321,-80.5625
1772313086.1642604,90.34770893617839,2.0735062621791824,-6.933486543036308,-0.39381417829418336,1.283240632043572,9.785923547094656,0.004348563500248874,0.0034680977756388104,-0.014180800172453928,48.17354447932617,-39.86070770255321,-80.5625
1772313086.2134407,90.29173119089535,2.037408105495079,-7.02832389481285,-0.38180896417130633,1.3113131240663356,9.74695796162758,-0.006436506113664345,0.007727476412925318,-0.018544123302439753,48.52359275488723,-38.766276935086985,-81.5
1772313086.2635024,90.2137355916619,2.016519136745729,-7.097323546873984,-0.41086093142922975,1.337533639939906,9.731249998908353,0.010404293326916432,-0.013045690500746622,-0.038179077387375956,48.01198373675952,-40.36582959522994,-81.0625
1772313086.2943988,90.2137355916619,2.016519136745729,-7.097323546873984,-0.41086093142922975,1.337533639939906,9.731249998908353,0.010404293326916432,-0.013045690500746622,-0.038179077387375956,48.01198373675952,-40.36582959522994,-81.0625
1772313086.312823,90.13736542927978,2.031991006783802,-7.0779609767965255,-0.41640368600267935,1.3282215656927836,9.720796525188149,-0.009077903287494535,-0.015722507414737737,-0.02945243112740431,48.01198373675952,-40.36582959522994,-81.0625
1772313086.341995,90.13736542927978,2.031991006783802,-7.0779609767965255,-0.41640368600267935,1.3282215656927836,9.720796525188149,-0.009077903287494535,-0.015722507414737737,-0.02945243112740431,48.01198373675952,-40.36582959522994,-81.0625
1772313086.3710325,90.05718947790079,2.007785386044452,-7.074776373983357,-0.44920667136515546,1.3785210574722266,9.750636083980819,-0.0074358849888908965,0.009666777588070177,-0.030543261909900768,49.06756457589485,-39.821857774222316,-81.0625
1772313086.4005728,89.99187369556537,1.9871002463890814,-7.102333688305901,-0.45525753293429916,1.3448630608473744,9.770493977027627,-0.002438990612758136,-2.972828765412221e-05,-0.037088246604879506,49.06756457589485,-39.821857774222316,-81.0625
1772313086.4211001,89.97188352119154,1.956028657416935,-7.121150993364107,-0.45928431371601175,1.3224640400779932,9.77367384790112,-0.0004699611499591539,-0.0014693400251857061,-0.013089969389957472,47.80135323337358,-39.13846818103956,-81.0625
1772313086.4435127,89.97845233145011,1.9420714647468367,-7.137673591317268,-0.4619640913441528,1.3075577419694266,9.775790016445944,0.014633943676548819,0.00017836972592473287,0.011999138607461015,47.80135323337358,-39.13846818103956,-81.0625
1772313086.4586308,89.97845233145011,1.9420714647468367,-7.137673591317268,-0.4619640913441528,1.3075577419694266,9.775790016445944,0.014633943676548819,0.00017836972592473287,0.011999138607461015,47.80135323337358,-39.13846818103956,-81.0625
1772313086.4846807,89.98796491789373,1.9310221957380311,-7.185631650234604,-0.4669032851718487,1.3110641163968226,9.767162967851416,0.01857200260214678,-0.0027008537491384345,0.007635815477475192,47.80135323337358,-39.13846818103956,-81.0625
1772313086.505597,89.98796491789373,1.9310221957380311,-7.185631650234604,-0.4669032851718487,1.3110641163968226,9.767162967851416,0.01857200260214678,-0.0027008537491384345,0.007635815477475192,47.80135323337358,-39.13846818103956,-81.0625
1772313086.521415,90.0007994431392,1.9262735874451922,-7.230277983294525,-0.4673079235889545,1.3224092449125053,9.754731539967565,-0.0029386800503714123,0.0009399222999183078,0.008726646259971648,47.36200805945553,-39.78674055292882,-81.5
1772313086.5391557,90.00176073714178,1.9107205823322937,-7.2315692259146624,-0.47055070978638996,1.3284269673057516,9.743113451871691,-0.019071692039760058,0.0036705043367108643,-0.006544984694978736,47.36200805945553,-39.78674055292882,-81.5
1772313086.5587654,90.00176073714178,1.9107205823322937,-7.2315692259146624,-0.47055070978638996,1.3284269673057516,9.743113451871691,-0.019071692039760058,0.0036705043367108643,-0.006544984694978736,47.36200805945553,-39.78674055292882,-81.5
1772313086.5809922,89.99111525341893,1.871390230352905,-7.221913038763184,-0.4696440799753858,1.326484686634176,9.735381744026435,-0.02201037209013147,0.004610426636629173,-0.001090830782496456,47.36200805945553,-39.78674055292882,-81.5
1772313086.6040468,90.01980176394862,1.8190809026054797,-7.213517863108449,-0.46904072796388113,1.3251921205439388,9.75030704906817,-0.020630216927908132,0.011457437324944426,0.015271630954950384,48.56244268321813,-39.66029703165567,-81.75
1772313086.6301172,90.01980176394862,1.8190809026054797,-7.213517863108449,-0.46904072796388113,1.3251921205439388,9.75030704906817,-0.020630216927908132,0.011457437324944426,0.015271630954950384,48.56244268321813,-39.66029703165567,-81.75
1772313086.6558516,90.02268151735231,1.7700897241549487,-7.226997661598911,-0.47188619964149725,1.3452376231566507,9.760239672846861,-0.02700726646626423,0.014306932512353474,-0.002181661564992912,48.56244268321813,-39.66029703165567,-81.75
1772313086.683908,90.02524497779231,1.7340609656131971,-7.208064298091978,-0.4737798292569494,1.3585776812224741,9.763504611309584,-0.024949052140502883,0.00555034893654748,-0.003272492347489368,48.56244268321813,-39.66029703165567,-81.75
1772313086.7019105,90.01341123796757,1.770489048059034,-7.201844516396213,-0.4789077087133104,1.3165411195801933,9.765677391384774,0.02556765472873265,-0.016275961975152457,-0.01090830782496456,48.56244268321813,-39.66029703165567,-80.25
1772313086.7160535,90.0319520894275,1.7696944629547948,-7.252151191804008,-0.4823202552093518,1.288566257386417,9.757088017131311,0.029262195900590832,0.040849929281165355,0.026179938779914945,48.56244268321813,-39.66029703165567,-80.25
1772313086.7291696,90.0319520894275,1.7696944629547948,-7.252151191804008,-0.4823202552093518,1.288566257386417,9.757088017131311,0.029262195900590832,0.040849929281165355,0.026179938779914945,48.56244268321813,-39.66029703165567,-80.25
1772313086.7514088,90.10103250740706,1.7328979150843449,-7.210745084478491,-0.45854159047245646,1.2193997336298452,9.63429297475905,-0.05130798773088322,0.006692677797537846,0.055632369907319255,48.56244268321813,-39.66029703165567,-80.25
1772313086.7882767,90.05710529715739,1.7619803117115345,-7.2902082419116505,-0.4607579589730682,1.3033101679031842,9.552574245770813,0.08295540912143076,-0.0014282288325179792,-0.039269908169872414,47.84020316170448,-40.03248827760825,-81.5
1772313086.8322284,90.04976039208469,1.7452513040100064,-7.2100794866518,-0.44419212319384094,1.2292116413784817,9.524952238145712,-0.02759044931433307,-0.01789963489111557,-0.007635815477475192,47.84020316170448,-40.03248827760825,-81.5
1772313086.8639107,90.04847830883516,1.762102201743301,-7.224340140187638,-0.3761241876661978,1.1641381942067273,9.580162558190276,0.026977538178610108,-0.011867941899595337,0.002181661564992912,48.36203201232059,-39.271398827763704,-79.875
1772313086.9082658,90.06799069402642,1.7504343234110982,-7.256759131103928,-0.3843488062584718,1.0932505318220394,9.616904409440247,0.09428697081813177,-0.13057581815808272,0.003272492347489368,48.36203201232059,-39.271398827763704,-79.875
1772313086.9230912,90.06435792521324,1.7524427935511848,-7.246841318560952,-0.3931778109600391,1.1986359202724384,9.714948158574758,-0.025300100139845547,-0.00567495353967077,-0.003272492347489368,47.63979249080694,-39.64359007371629,-80.6875
1772313086.9403799,90.06435792521324,1.7524427935511848,-7.246841318560952,-0.3931778109600391,1.1986359202724384,9.714948158574758,-0.025300100139845547,-0.00567495353967077,-0.003272492347489368,47.63979249080694,-39.64359007371629,-80.6875
1772313086.9716253,90.05903610708145,1.7495216202718367,-7.216043492085138,-0.45852349198166403,1.238122041043232,9.740053837915504,-0.01701347771399871,-0.005086079239095128,-0.013089969389957472,47.63979249080694,-39.64359007371629,-80.6875
1772313087.0085075,90.07459676392746,1.7434943371938532,-7.244511159196358,-0.45875776097835125,1.2753994424816129,9.79690272755579,0.012076039913174193,0.009904603889303157,0.013089969389957472,48.99156802464778,-38.17356144946801,-80.6875
1772313087.0223303,90.07427774847393,1.7424669919044924,-7.269665796877961,-0.4589136643786904,1.3002071367229966,9.794593688079859,0.018102041452187627,-0.00417019377432414,0.0,48.99156802464778,-38.17356144946801,-80.6875
1772313087.049794,90.06203802125495,1.736129937219945,-7.314655939563899,-0.4530704086481434,1.3197810479216372,9.786366824687649,-0.011136117613255885,-0.006965923838931743,-0.01090830782496456,48.99156802464778,-38.17356144946801,-80.6875
1772313087.0850844,90.06203802125495,1.736129937219945,-7.314655939563899,-0.4530704086481434,1.3197810479216372,9.786366824687649,-0.011136117613255885,-0.006965923838931743,-0.01090830782496456,48.99156802464778,-38.17356144946801,-80.6875
1772313087.112102,90.06236066506835,1.732499494307777,-7.308692494660679,-0.44918178723290786,1.3328072671694176,9.780891939000218,0.0024687189004122586,-0.002409262325104014,0.001090830782496456,47.84020316170448,-40.03248827760825,-81.75
1772313087.1275935,90.06236066506835,1.732499494307777,-7.308692494660679,-0.44918178723290786,1.3328072671694176,9.780891939000218,0.0024687189004122586,-0.002409262325104014,0.001090830782496456,47.84020316170448,-40.03248827760825,-81.75
1772313087.1629982,90.06832723866628,1.7304952880820823,-7.317965382445397,-0.4454262750198383,1.3684199331253284,9.783938687148353,0.001350426874569217,0.00928600130107339,0.011999138607461015,47.84020316170448,-40.03248827760825,-81.75
1772313087.2076802,90.07198191544018,1.7191707459863,-7.366269522393173,-0.4488740312957784,1.3890550966983395,9.78596626400653,0.0034680977756388104,-0.004348563500248874,-0.004363323129985824,48.17354447932617,-39.86070770255321,-83.0625
1772313087.2425854,90.06900201514662,1.709256836312837,-7.363609974813748,-0.4511684745834554,1.4027875675462977,9.78731559375613,-0.0004996894376132761,0.00096965058757243,0.0,48.17354447932617,-39.86070770255321,-83.0625
1772313087.2816741,90.06305253468292,1.7042677946043014,-7.383122655151455,-0.46458941636462886,1.4057970378916589,9.77483311080221,0.001909572887490738,0.0034383694879846884,0.00545415391248228,48.69537332994227,-39.099618252708666,-82.25
1772313087.3386676,90.06671578817806,1.6952721004204303,-7.421833431980341,-0.4627945658943991,1.3869852798317983,9.783251716371444,-0.003819145774981476,-0.006876738975969377,-0.006544984694978736,48.69537332994227,-39.099618252708666,-82.25
1772313087.3633678,90.06704866501516,1.6893119418291282,-7.42546552832799,-0.4616001129562547,1.3744662649840678,9.788854204335783,-0.004877981225516272,-5.945657530824442e-05,0.0,48.17354447932617,-39.86070770255321,-80.6875
1772313087.4020834,90.0677260334454,1.6750622552813828,-7.44232446260634,-0.4548582101669155,1.3691996682505643,9.79258259749216,0.007287243550620286,0.0025281754757205026,0.00545415391248228,48.17354447932617,-39.86070770255321,-80.6875
1772313087.4554627,90.06808389526647,1.6644435123369292,-7.465145548614062,-0.45343621697370123,1.3716418146580758,9.78168335465957,-0.0038488740626355976,-0.004437748363211241,-0.003272492347489368,48.69537332994227,-39.099618252708666,-80.25
1772313087.4851422,90.06808389526647,1.6644435123369292,-7.465145548614062,-0.45343621697370123,1.3716418146580758,9.78168335465957,-0.0038488740626355976,-0.004437748363211241,-0.003272492347489368,48.69537332994227,-39.099618252708666,-80.25
1772313087.5501363,90.06280746258453,1.6498575669771962,-7.482327531477608,-0.4518601306098456,1.3743486023345466,9.776293247389948,0.001439611737531584,0.0019690294627989825,0.002181661564992912,49.82184080408047,-39.78471115130615,-81.0625
1772313087.582623,90.06280746258453,1.6498575669771962,-7.482327531477608,-0.4518601306098456,1.3743486023345466,9.776293247389948,0.001439611737531584,0.0019690294627989825,0.002181661564992912,49.82184080408047,-39.78471115130615,-81.0625
1772313087.6115344,90.06283551224065,1.6451980758363993,-7.501516058736289,-0.4466616989172743,1.3511891780157894,9.77753319754515,-0.003819145774981476,-0.006876738975969377,-0.003272492347489368,49.82184080408047,-39.78471115130615,-81.0625
1772313087.627623,90.06317412726648,1.6392381357928079,-7.505147802883047,-0.443202200696155,1.3357768398393775,9.778358370522286,0.0004996894376132761,-0.00096965058757243,0.001090830782496456,49.17356843219122,-39.3453659773881,-81.0625
1772313087.6569076,90.06352887039571,1.63094865347184,-7.51837357904737,-0.44089994327512744,1.3255201009500737,9.778907513920784,0.0004699611499591539,0.0014693400251857061,0.0,49.17356843219122,-39.3453659773881,-81.0625
1772313087.693138,90.06352887039571,1.63094865347184,-7.51837357904737,-0.44089994327512744,1.3255201009500737,9.778907513920784,0.0004699611499591539,0.0014693400251857061,0.0,49.17356843219122,-39.3453659773881,-81.0625
1772313087.7170289,90.06354501253405,1.6286191007375468,-7.527967485872803,-0.4470294861820895,1.3335618750493168,9.772582739303513,5.945657530824435e-05,-0.004877981225516272,-0.002181661564992912,48.73422325827317,-39.993638349277354,-81.5
1772313087.7413566,90.06388552162493,1.6226593619242646,-7.531599178780619,-0.45110862851519207,1.3389135858798602,9.76837367244808,-0.00193930117514486,-0.0009993788752265522,0.001090830782496456,48.73422325827317,-39.993638349277354,-81.5
1772313087.757978,90.06422640669965,1.6166996608158912,-7.535230886617446,-0.447693916568662,1.3305810742512247,9.775607920596105,-0.0004996894376132761,0.00096965058757243,0.002181661564992912,48.73422325827317,-39.993638349277354,-81.5
1772313087.7840178,90.06422640669965,1.6166996608158912,-7.535230886617446,-0.447693916568662,1.3305810742512247,9.775607920596105,-0.0004996894376132761,0.00096965058757243,0.002181661564992912,48.73422325827317,-39.993638349277354,-81.5
1772313087.8320358,90.06424408083802,1.6143702618944449,-7.544824602148473,-0.44542146391307785,1.3250358808426212,9.780422231926769,-5.945657530824435e-05,0.004877981225516272,0.003272492347489368,48.17354447932617,-39.86070770255321,-81.5
1772313087.8664732,90.06460454791863,1.6060813541266667,-7.558049849216591,-0.4469738398568484,1.3272926242749827,9.780280990630624,5.945657530824435e-05,-0.004877981225516272,-0.002181661564992912,48.17354447932617,-39.86070770255321,-81.5
1772313088.07249,90.05939042766504,1.5868300707516618,-7.594416872255113,-0.45483746449109513,1.3364838856302712,9.768538310363223,0.002438990612758136,2.972828765412221e-05,0.001090830782496456,48.56244268321813,-39.66029703165567,-82.25
1772313088.1063921,90.05975770496828,1.578540888875107,-7.607641425494045,-0.4532400830579005,1.334911143578571,9.772372373582186,-0.00193930117514486,-0.0009993788752265522,0.0,48.32691479102709,-40.97695534420303,-81.75
1772313088.1982625,90.06012688981798,1.5702519026894848,-7.62086580264024,-0.4521770435580293,1.3338645013118444,9.768233676410476,0.001439611737531584,0.0019690294627989825,0.002181661564992912,48.32691479102709,-40.97695534420303,-81.75
1772313088.265663,90.06012688981798,1.5702519026894848,-7.62086580264024,-0.4521770435580293,1.3338645013118444,9.768233676410476,0.001439611737531584,0.0019690294627989825,0.002181661564992912,48.32691479102709,-40.97695534420303,-81.75
1772313088.3392112,90.06049798209676,1.5619631129387792,-7.634090003759299,-0.4508469760807389,1.3202476805923375,9.765872627058446,-0.0014693400251857061,0.0004699611499591539,-0.001090830782496456,48.56244268321813,-39.66029703165567,-81.0625
1772313088.4226775,90.06122006745264,1.5477153272517856,-7.6509453032922545,-0.4508469760807389,1.3202476805923375,9.765872627058446,-0.0014693400251857061,0.0004699611499591539,-0.001090830782496456,48.56244268321813,-39.66029703165567,-81.0625
1772313088.490668,90.0612458884712,1.5453861257176649,-7.660537878178261,-0.45355796144844357,1.322573796595569,9.767253279413172,0.0004996894376132761,-0.00096965058757243,0.001090830782496456,47.63979249080694,-39.64359007371629,-80.25
1772313088.5275826,90.0612458884712,1.5453861257176649,-7.660537878178261,-0.4553620919269602,1.3241218008113014,9.768172088132346,0.0014693400251857061,-0.0004699611499591539,-0.002181661564992912,47.63979249080694,-39.64359007371629,-80.25
1772313088.5824463,90.0612458884712,1.5453861257176649,-7.660537878178261,-0.4553620919269602,1.3241218008113014,9.768172088132346,0.0014693400251857061,-0.0004699611499591539,-0.002181661564992912,47.63979249080694,-39.64359007371629,-80.25
1772313088.671381,90.0612458884712,1.5453861257176649,-7.660537878178261,-0.456562720606955,1.325151980324531,9.768783545071189,-2.9728287654122175e-05,0.002438990612758136,0.0,48.56244268321813,-39.66029703165567,-81.5
1772313088.7437394,90.0612458884712,1.5453861257176649,-7.660537878178261,-0.456562720606955,1.325151980324531,9.768783545071189,-2.9728287654122175e-05,0.002438990612758136,0.0,48.56244268321813,-39.66029703165567,-81.5
1772313088.7956672,90.0612458884712,1.5453861257176649,-7.660537878178261,-0.46033522943254934,1.3243052193821752,9.772535574540887,0.0,0.0,-0.001090830782496456,48.89578400083981,-39.488516456600635,-81.5
1772313088.8827572,90.0612458884712,1.5453861257176649,-7.660537878178261,-0.46446928976499197,1.3341945548874046,9.775032508240056,0.002438990612758136,2.972828765412221e-05,-0.003272492347489368,48.89578400083981,-39.488516456600635,-81.5
1772313088.932819,90.0612458884712,1.5453861257176649,-7.660537878178261,-0.4701939645867116,1.3392434632944674,9.773349078016956,-0.00096965058757243,-0.0004996894376132761,0.0,48.89578400083981,-39.488516456600635,-81.0625
1772313088.9635303,90.0612458884712,1.5453861257176649,-7.660537878178261,-0.4701939645867116,1.3392434632944674,9.773349078016956,-0.00096965058757243,-0.0004996894376132761,0.0,48.89578400083981,-39.488516456600635,-81.0625
1772313089.0328968,90.02675398565087,1.5368369298726,-7.771986948086073,-0.4666154940794327,1.3501739609919776,9.772228774008632,0.1338712376603036,0.06407916116511583,-0.04363323129985824,48.89578400083981,-39.488516456600635,-81.0625
1772313089.1340997,90.04809109784465,1.5073063793097132,-7.667064997513419,-0.4198138320668775,1.395391776821215,9.818314788108179,0.015835729112847426,0.021659324090788804,-0.020725784867432664,49.087352048455756,-36.858606442335386,-81.0625
1772313089.2543144,90.72201481501536,1.4886585752876857,-7.821408591026243,-0.38866784880634264,1.425483728139473,9.848984515676918,0.011219611023711452,0.04014214182997322,0.12544553998709243,47.54400846699897,-40.958545080848914,-79.875
1772313089.316567,91.87413933395749,1.548539584837087,-7.776335986523858,-0.4248169045744472,1.328405638441209,9.838407774630232,0.0004105045746509099,0.006347321250701979,0.1930770485018727,48.17354447932617,-39.86070770255321,-79.0625
1772313089.4159791,92.13165918786527,1.5617465916136377,-7.792241828832874,-0.4492969331397706,1.294929628252512,9.835595280095422,0.014895806812929114,0.01872064404041739,0.1538071403320003,48.17354447932617,-39.86070770255321,-79.0625
1772313089.518683,93.43366474114035,1.5701579638371859,-7.817918713494179,-0.45601304073685833,1.2182073170468533,9.88819047362093,-0.018601730889800907,0.005139844361896572,0.19962203319685143,47.916199712951546,-41.68078460236256,-78.6875
1772313089.5796585,94.1503928341978,1.5762529294990426,-7.8450312650553,-0.47312228107328275,1.2275408840623943,9.90217622723774,0.006371358085849299,0.03764369464190684,0.15162547876700738,49.49052888808146,-42.416324470986126,-77.0625
1772313089.658732,94.99594539620627,1.5835145408815545,-7.832846850498856,-0.4696407701396416,1.2414139381512175,9.854616691014193,-0.022218470103710326,0.021683360925936125,0.17016960206944712,49.49052888808146,-42.416324470986126,-77.0625
1772313089.7443821,94.99594539620627,1.5835145408815545,-7.832846850498856,-0.4696407701396416,1.2414139381512175,9.854616691014193,-0.022218470103710326,0.021683360925936125,0.17016960206944712,49.49052888808146,-42.416324470986126,-77.0625
1772313089.8661053,96.8049762807897,1.6558995434088588,-7.868477664195725,-0.4792995012746009,1.2611138446538213,9.808593626579826,0.01892305060148945,0.008524448727079815,0.15817046346198613,48.05115976129836,-43.5799385680405,-75.0625
1772313089.9282901,97.40310272345212,1.6717382750119236,-7.86038401051569,-0.5041248273401399,1.3007884206020393,9.799028739077137,-0.02201037209013147,0.004610426636629173,0.1810779098944117,47.99422566582128,-45.7889136717418,-74.25
1772313089.957272,97.68455806094467,1.681273324681152,-7.854486869149849,-0.5087517891158578,1.3333207433037302,9.779282966461613,-0.007144293564856477,0.0257700612898047,0.16798794050445423,47.99422566582128,-45.7889136717418,-74.25
1772313089.9814453,97.94485296011294,1.6877601095614907,-7.859024941653183,-0.49046946983347645,1.3208209283408943,9.749416816824118,0.005110116074242451,0.021040721502559038,0.15271630954950383,47.99422566582128,-45.7889136717418,-74.25
1772313090.0108013,97.94485296011294,1.6877601095614907,-7.859024941653183,-0.49046946983347645,1.3208209283408943,9.749416816824118,0.005110116074242451,0.021040721502559038,0.15271630954950383,47.99422566582128,-45.7889136717418,-74.25
1772313090.0409937,98.31722460203838,1.7050603091963952,-7.841629578825432,-0.47830279057793945,1.312502441115209,9.71950589274516,-0.0036761957892176658,0.021421497789555828,0.17016960206944712,48.07159942627514,-45.25686498863731,-73.0625
1772313090.0798206,98.7534128614739,1.7056763462685236,-7.83076939648731,-0.45947966414023445,1.2861520538333946,9.699600506897527,-0.0037059240768717878,0.023860488402313963,0.14726215563702155,48.07159942627514,-45.25686498863731,-73.0625
1772313090.1182961,99.15050444949364,1.6972010697927118,-7.859046643021532,-0.4714704261728591,1.3161922270658013,9.743220593998087,0.002522484023213701,0.0332059462786956,0.14726215563702155,48.30915672008885,-46.40003942071489,-72.6875
1772313090.1458213,99.43032651907046,1.7051409659179668,-7.863385340011045,-0.4616091212542293,1.345377630184552,9.77224927469521,0.014277204224699353,0.02944625707902237,0.17016960206944712,48.30915672008885,-46.40003942071489,-72.6875
1772313090.1939597,99.43032651907046,1.7051409659179668,-7.863385340011045,-0.4616091212542293,1.345377630184552,9.77224927469521,0.014277204224699353,0.02944625707902237,0.17016960206944712,48.30915672008885,-46.40003942071489,-72.6875
1772313090.2988777,100.0720363711267,1.7096833179498863,-7.882608626143651,-0.4820815594979348,1.3734472096402124,9.75811642035434,-0.011962818215064503,0.020832623488980184,0.15162547876700738,48.41516057638522,-45.92354762388067,-71.0625
1772313090.4045858,101.23494278991463,1.6986260966347717,-7.906860423238973,-0.47786471535124797,1.4013212046135133,9.748711163664819,0.00566926208716397,0.015193089689470337,0.1559888018969932,46.901824299977726,-47.89869814080568,-69.5
1772313090.480279,102.16975186277266,1.7636281933733946,-7.928198700693027,-0.4810054603787811,1.4168063690942168,9.765867852352779,-0.003497826063292933,0.00678755411300701,0.15489797111449674,46.901824299977726,-47.89869814080568,-69.5
1772313090.5553136,102.96310082463582,1.702955634263836,-7.96116681562395,-0.4695780778556538,1.4227880632242804,9.777285437021847,0.00249275573555958,0.03564493689145374,0.17998707911191522,46.29069855100464,-48.213629195073246,-70.25
1772313090.6128225,103.43485618936437,1.674286244543479,-7.966415955109631,-0.47089379399161607,1.4221718121462827,9.788228823783653,-0.009494099314652246,0.018423361163876172,0.16689710972195776,46.29069855100464,-48.213629195073246,-70.25
1772313090.6496203,104.06947857371834,1.6691932689632314,-7.951367688661193,-0.465822380680669,1.424826371738953,9.81892730737923,-0.01866118746510915,0.010017825587412843,0.19744037163185854,47.051788000849186,-48.73545804568935,-68.25
1772313090.699577,104.61798428558883,1.6722781883904747,-7.944541821742682,-0.5229669134413506,1.4280731983903268,9.883058413298977,0.0035515911860943762,0.0288276544907926,0.20180369476184434,45.86157320957498,-49.70036477726091,-68.25
1772313090.755168,105.4642579757116,1.6884837264006956,-7.957434866965325,-0.486503126974362,1.3870334604979935,9.868654893056476,0.0099583690121046,0.023539168690625417,0.12544553998709243,45.86157320957498,-49.70036477726091,-68.25
1772313090.85446,105.97834164519162,1.685675338484348,-7.93587673249248,-0.45610754880556076,1.347827957970721,9.859069511232956,-0.0016477097511104397,0.015103904826507971,0.16580627893946132,45.8448662516356,-50.6230149696721,-68.0
1772313090.8895242,106.42012557826433,1.7108623285252722,-7.933635021022501,-0.45074715032987356,1.314075464490225,9.81923942963194,-0.028476606491449938,0.014776893662312628,0.22143864884678055,45.8448662516356,-50.6230149696721,-68.0
1772313090.9465718,107.17453090184816,1.7239011327613443,-7.9738842097668385,-0.5169379128480821,1.3685600014433683,9.779352508428351,-0.01772126516519084,0.012956505637784256,0.19198621771937624,44.6832815562039,-51.64347858751394,-66.0
1772313090.9819932,107.51077172254911,1.7493002201300176,-8.003590882458042,-0.5371990950970142,1.4170775233579367,9.762843543055427,0.005698990374818091,0.0127540990767122,0.14289883250703572,44.6832815562039,-51.64347858751394,-66.0
1772313091.0136466,107.51077172254911,1.7493002201300176,-8.003590882458042,-0.5371990950970142,1.4170775233579367,9.762843543055427,0.005698990374818091,0.0127540990767122,0.14289883250703572,44.6832815562039,-51.64347858751394,-66.0
1772313091.0358598,107.86392557909716,1.7427907585309361,-8.015731910467903,-0.5484210400497449,1.3865571555451413,9.751857011016972,-0.0066446041272432005,0.02480041070223227,0.16471544815696484,45.21533023930839,-51.72085234796779,-65.5
1772313091.0865974,108.83266867445293,1.7611478479773333,-7.997154164300685,-0.5695921334758253,1.3331897086764024,9.756405490637507,-0.01384266281490112,0.01495526338823736,0.20943951023931956,44.405497124852495,-51.78662906672647,-64.75
1772313091.182271,108.83266867445293,1.7611478479773333,-7.997154164300685,-0.5695921334758253,1.3331897086764024,9.756405490637507,-0.01384266281490112,0.01495526338823736,0.20943951023931956,44.405497124852495,-51.78662906672647,-64.75
1772313091.2635474,110.5167835380487,1.830915471887223,-8.022165098229502,-0.5430471523936284,1.3493859416240779,9.678219959261861,0.01063642817564261,0.007935574426504173,0.16580627893946132,45.53026129357597,-52.33197809694088,-62.25
1772313091.3473701,110.5167835380487,1.830915471887223,-8.022165098229502,-0.5430471523936284,1.3493859416240779,9.678219959261861,0.01063642817564261,0.007935574426504173,0.16580627893946132,45.53026129357597,-52.33197809694088,-62.25
1772313091.3867126,111.07682350795321,1.849759910320675,-8.021696450354971,-0.5450158431513792,1.3565590112208532,9.678815402773127,-0.010434021614570554,0.01548468111350476,0.16907877128695067,43.738814489609126,-52.130190216836546,-62.25
1772313091.4393523,111.8440027445831,1.877622577769447,-8.032903957754401,-0.5195644502003159,1.3751236140140295,9.705972557436889,0.01383697136239432,0.025537926441078523,0.17016960206944712,43.738814489609126,-52.130190216836546,-62.25
1772313091.4623945,112.07553999679887,2.4740368356107094,-8.692380545968016,-0.5140650281551902,1.3439521061781388,9.747461122451563,0.005490892361239237,0.029827033366019155,0.17016960206944712,43.07213185436576,-52.47375136694662,-61.0625
1772313091.4916868,112.33575679700704,1.8716004190768079,-8.04261036061938,-0.5152757177688118,1.3545663522821945,9.808522416084385,-0.015692779127083615,0.006638912674736401,0.18980455615438332,43.07213185436576,-52.47375136694662,-61.0625
1772313091.5282629,112.66329314896332,1.8697029946994508,-8.041425712406669,-0.5130167503812856,1.3556830067936279,9.81570690782449,-0.012432779365023659,0.01936328346379448,0.19853120241435498,43.07213185436576,-52.47375136694662,-61.0625
1772313091.560821,113.34703024206782,1.8771455874759044,-8.05875638509618,-0.5116045967693494,1.3639054694996073,9.87735500584593,0.0027305820367925573,0.016133011989388647,0.17998707911191522,41.755473541818404,-52.23822347475558,-59.5625
1772313091.6084564,113.65828314308041,1.8989754998968746,-8.053304040030978,-0.5076001565142931,1.3634304188775923,9.774541323010085,-0.00249844718806638,0.00484825293786215,0.1908953869368798,41.755473541818404,-52.23822347475558,-59.5625
1772313091.6368446,114.08422765020904,1.9091544134311316,-8.045831347554895,-0.507999914058184,1.3690612856972222,9.776367311440628,-0.0012074768888054072,0.019012235464451813,0.18980455615438332,40.51651508593285,-53.79073577570192,-60.0
1772313091.6642964,114.57360618908136,1.9333518801454048,-8.04707670583222,-0.4860102513309395,1.3880407397201497,9.777582486343528,0.005050659498934203,0.025918702728075314,0.17453292519943295,40.51651508593285,-53.79073577570192,-60.0
1772313091.7075984,114.57360618908136,1.9333518801454048,-8.04707670583222,-0.4860102513309395,1.3880407397201497,9.777582486343528,0.005050659498934203,0.025918702728075314,0.17453292519943295,40.51651508593285,-53.79073577570192,-60.0
1772313091.7377129,114.9855008466666,1.9328233720582015,-8.02989718082706,-0.47137637642658603,1.4006713543580147,9.778391171667014,-0.020130527490294856,0.010487786737372,0.1908953869368798,41.80283999722297,-53.83096291323961,-59.5625
1772313091.7545586,114.9855008466666,1.9328233720582015,-8.02989718082706,-0.47137637642658603,1.4006713543580147,9.778391171667014,-0.020130527490294856,0.010487786737372,0.1908953869368798,41.80283999722297,-53.83096291323961,-59.5625
1772313091.8069673,115.39210974365591,1.9312288479567095,-8.042059794303452,-0.48398455700609555,1.4013240538534046,9.812380459789383,-0.020130527490294856,0.010487786737372,0.19744037163185854,41.80283999722297,-53.83096291323961,-59.5625
1772313091.876171,115.98067565597827,1.9526692708031648,-8.041901372079698,-0.4459211340058485,1.34488226560319,9.838910477944244,0.004640154924283295,0.019571381477373334,0.18216874067690814,39.97254326492523,-52.73515493656658,-60.0
1772313091.9323912,116.57074680843435,1.949337407618528,-8.056149645068981,-0.4459211340058485,1.34488226560319,9.838910477944244,0.004640154924283295,0.019571381477373334,0.18216874067690814,39.97254326492523,-52.73515493656658,-60.0
1772313092.039071,117.0970472191467,1.9367911962420505,-8.066913718378537,-0.4292830137158668,1.3347354918328662,9.819204264998737,0.004610426636629174,0.02201037209013147,0.1832595714594046,40.97459661941295,-54.679645956026405,-59.0625
1772313092.0653536,118.39924364411924,1.8805874993935998,-8.125101695489152,-0.43984526983920175,1.3311218540566638,9.7561141061044,0.00555034893654748,0.02494905214050288,0.15926129424448257,38.67802792276939,-54.31629733335542,-56.75
1772313092.1255295,118.39924364411924,1.8805874993935998,-8.125101695489152,-0.43984526983920175,1.3311218540566638,9.7561141061044,0.00555034893654748,0.02494905214050288,0.15926129424448257,38.67802792276939,-54.31629733335542,-56.75
1772313092.1445901,118.39924364411924,1.8805874993935998,-8.125101695489152,-0.43984526983920175,1.3311218540566638,9.7561141061044,0.00555034893654748,0.02494905214050288,0.15926129424448257,38.67802792276939,-54.31629733335542,-56.75
1772313092.1751108,119.02939056542546,1.8714137353864286,-8.150494239072925,-0.4482246024930798,1.3701806494269042,9.727307975654883,-0.00567495353967077,0.025300100139845547,0.15489797111449674,38.604060773144994,-55.12783375322606,-56.0
1772313092.2016368,119.02939056542546,1.8714137353864286,-8.150494239072925,-0.4482246024930798,1.3701806494269042,9.727307975654883,-0.00567495353967077,0.025300100139845547,0.15489797111449674,38.604060773144994,-55.12783375322606,-56.0
1772313092.2338169,119.59567765501782,1.8574926280745798,-8.157035692701147,-0.45380095477095683,1.3961738414304663,9.708137817626291,0.0036705043367108647,0.019071692039760058,0.1908953869368798,38.604060773144994,-55.12783375322606,-56.0
1772313092.2587695,120.41568926324189,1.8453376074184942,-8.105646220277645,-0.4575119549199475,1.4134720203458568,9.695380291602959,-0.02753668419153163,0.017715573712684042,0.21489366415180183,37.659593706550226,-55.61454538254866,-56.0
1772313092.329856,120.97815231147085,1.8205441632639747,-8.093503432536583,-0.5141428010327757,1.4497571461880912,9.72034141761853,-0.017489130316464662,0.03393777056503505,0.19525871006686563,37.659593706550226,-55.61454538254866,-56.0
1772313092.3799489,121.71514123376322,1.79571458372532,-8.019966709765933,-0.5637240119166967,1.4677751565024795,9.723572321318565,-0.024128042991201065,0.018244991437951438,0.23452861823673804,37.955788401255745,-54.68848857930801,1993.25
1772313092.4199827,122.02946487424353,1.7690645019970157,-8.036941868510308,-0.5798640809954679,1.4470573987317943,9.725722451639381,0.02832227360067252,0.037911249230793934,0.10690141668465268,37.955788401255745,-54.68848857930801,1993.25
1772313092.4383934,122.02946487424353,1.7690645019970157,-8.036941868510308,-0.5798640809954679,1.4470573987317943,9.725722451639381,0.02832227360067252,0.037911249230793934,0.10690141668465268,37.955788401255745,-54.68848857930801,1993.25
1772313092.4890015,122.27988240111007,1.8030833673088296,-8.067198114887729,-0.593578620521964,1.4317376284673706,9.703737557398119,0.024711225839269907,0.013961575965517609,0.10362892433716332,38.460910293932464,-54.85004932187465,-54.75
1772313092.5426936,122.94812084505338,1.889120047633391,-8.139178729198502,-0.5734354837169572,1.2975242785966832,9.629229071804467,8.34934104555664e-05,0.03317621799104148,0.1810779098944117,35.90529352549955,-56.167033730629946,-54.0
1772313092.6072469,123.73022310385906,1.928969638460399,-8.112016819007117,-0.47187518745556334,1.2723165638938478,9.699734301751413,-0.03141528654182135,0.015716815962230936,0.18871372537188688,35.90529352549955,-56.167033730629946,-54.0
1772313092.647099,123.73022310385906,1.928969638460399,-8.112016819007117,-0.47187518745556334,1.2723165638938478,9.699734301751413,-0.03141528654182135,0.015716815962230936,0.18871372537188688,35.90529352549955,-56.167033730629946,-54.0
1772313092.6679997,123.93697761417899,1.9553819570345592,-8.138057818038638,-0.44412862621077964,1.3328522114726644,9.746654744686081,0.028179323614908713,0.009613012465268734,0.12435470920459599,36.67798001703929,-55.34698078368565,-52.0
1772313092.687117,124.47928097598236,2.017658429883276,-8.112150547211064,-0.5455991846187639,1.4132864436844466,9.692794186970405,-0.012135496488482438,-0.005026622663786884,0.18435040224190105,36.67798001703929,-55.34698078368565,-52.0
1772313092.7361336,124.47928097598236,2.017658429883276,-8.112150547211064,-0.5455991846187639,1.4132864436844466,9.692794186970405,-0.012135496488482438,-0.005026622663786884,0.18435040224190105,36.67798001703929,-55.34698078368565,-52.0
1772313092.76176,124.75225450195711,2.0257622433347686,-8.088085179499457,-0.5272496711326914,1.3978252394765283,9.671788829971774,-0.0012966617517677739,0.02632920730272622,0.16907877128695067,35.495955656630805,-54.69051798093068,-52.75
1772313092.7874591,125.00049390655057,2.029521621211359,-8.099678982749973,-0.4935856002774911,1.3459069268757027,9.724712233680785,-0.004086700363868575,0.015074176538853849,0.14726215563702155,35.495955656630805,-54.69051798093068,-52.75
1772313092.8151286,125.2885880527159,2.0308134482493703,-8.105777168473587,-0.5015557233362588,1.3483879220171764,9.759932167655977,0.010339145299101387,0.03232548055408553,0.1712604328519436,35.495955656630805,-54.69051798093068,-52.75
1772313092.8363342,125.5968157546697,2.035960216237097,-8.076604571748918,-0.4976657477964538,1.3321979734635425,9.766645081747429,-0.015871148853008346,0.02127285635128522,0.16907877128695067,35.2181712252794,-54.83366846014321,-52.375
1772313092.8579657,125.5968157546697,2.035960216237097,-8.076604571748918,-0.4976657477964538,1.3321979734635425,9.766645081747429,-0.015871148853008346,0.02127285635128522,0.16907877128695067,35.2181712252794,-54.83366846014321,-52.375
1772313092.8843172,125.90002880757504,2.0383619927613092,-8.082679960807189,-0.45344795861516385,1.34287641816239,9.771112451087125,0.010487786737371997,0.020130527490294856,0.11671889372712078,35.2181712252794,-54.83366846014321,-52.375
1772313092.9056423,125.90002880757504,2.0383619927613092,-8.082679960807189,-0.45344795861516385,1.34287641816239,9.771112451087125,0.010487786737371997,0.020130527490294856,0.11671889372712078,35.2181712252794,-54.83366846014321,-52.375
1772313092.9239628,126.14964624618439,2.0225526130917486,-8.095712869623668,-0.4117628426556764,1.3261947730157593,9.774085435478908,0.0045212417736668065,0.02932734392840588,0.11126473981463851,36.3446386994176,-55.51876135874069,-52.75
1772313092.9446733,126.30242212996292,2.0403005275796127,-8.117412587345024,-0.41970390984939976,1.2967053177102492,9.642259455088453,0.020802895201326062,0.01440180882782264,0.1439896632895322,36.3446386994176,-55.51876135874069,-52.75
1772313092.9785142,126.4867819682081,2.0381526306261577,-8.11040710905911,-0.477799812327288,1.3138389749845727,9.554530737731294,-0.0237769949918584,0.02947029391416969,0.1636246173744684,36.3446386994176,-55.51876135874069,-52.75
1772313093.0061653,126.87539478615773,2.0269483583946424,-8.1164404311431,-0.48970045179393984,1.3390322376101027,9.626607612909545,0.006638912674736401,0.015692779127083615,0.12762720155208535,34.21814727241435,-55.34901018530832,-51.1875
1772313093.0265944,126.87539478615773,2.0269483583946424,-8.1164404311431,-0.48970045179393984,1.3390322376101027,9.626607612909545,0.006638912674736401,0.015692779127083615,0.12762720155208535,34.21814727241435,-55.34901018530832,-51.1875
1772313093.0571866,127.12591265225866,2.000659724101606,-8.120631976854144,-0.5241082372283427,1.3195690425478428,9.67457396818922,-0.01784017831580733,0.0227124680888168,0.1559888018969932,34.21814727241435,-55.34901018530832,-51.1875
1772313093.0792003,127.12591265225866,2.000659724101606,-8.120631976854144,-0.5241082372283427,1.3195690425478428,9.67457396818922,-0.01784017831580733,0.0227124680888168,0.1559888018969932,34.21814727241435,-55.34901018530832,-51.1875
1772313093.1067085,127.71110073864774,1.9497843528830665,-8.188290105434598,-0.4786156455027367,1.341860183364719,9.766707052540296,-0.011052624202800319,0.026210294152109733,0.18871372537188688,34.972423500599966,-55.311863562392155,-50.75
1772313093.1524684,128.14637877852138,1.9236411751091445,-8.206393470528932,-0.4831286938568519,1.387688569129701,9.791224362201437,0.007549106687000584,0.02107044979021316,0.13744467859455345,34.972423500599966,-55.311863562392155,-50.75
1772313093.2424085,128.66853488751798,1.9458291720346448,-8.194369650424534,-0.48613207712246215,1.418186847919684,9.830956139855866,0.0029386800503714123,-0.0009399222999183078,0.16798794050445423,33.71302537973762,-55.18744944274167,-50.0
1772313093.2728157,129.14840955758976,1.9977600646631906,-8.164163128799315,-0.4881307951357365,1.4384831117663206,9.833981412100616,-0.018423361163876172,-0.009494099314652246,0.1810779098944117,33.71302537973762,-55.18744944274167,-50.0
