timestamp,yaw,pitch,roll,ax,ay,az,gx,gy,gz,mx,my,mz
1772057758.70055,-0.05896924493829901,1.019449277341519,-6.620895226105596,-0.18967490388016942,-1.1139189106670875,9.355110200484825,0.001090830782496456,0.004363323129985824,0.0,5.5625,22.375,-52.5
1772057758.711631,-0.05896924493829901,1.019449277341519,-6.620895226105596,-0.18967490388016942,-1.1139189106670875,9.355110200484825,0.001090830782496456,0.004363323129985824,0.0,5.5625,22.375,-52.5
1772057758.7227626,-0.05896924493829901,1.019449277341519,-6.620895226105596,-0.18978365216381435,-1.119298214686485,9.497240584752705,0.001090830782496456,0.003272492347489368,-0.002181661564992912,5.5625,22.375,-52.5
1772057758.7336638,-0.05896924493829901,1.019449277341519,-6.620895226105596,-0.18978365216381435,-1.119298214686485,9.497240584752705,0.001090830782496456,0.003272492347489368,-0.002181661564992912,5.5625,22.375,-52.5
1772057758.7460117,-0.05896924493829901,1.019449277341519,-6.620895226105596,-0.18651091122446276,-1.1295683048352696,9.591826767782555,-0.001090830782496456,0.004363323129985824,0.001090830782496456,5.5625,22.375,-52.5
1772057758.7579215,-0.05896924493829901,1.019449277341519,-6.620895226105596,-0.18651091122446276,-1.1295683048352696,9.591826767782555,-0.001090830782496456,0.004363323129985824,0.001090830782496456,5.5625,22.375,-52.5
1772057758.7689803,-0.05896924493829901,1.019449277341519,-6.620895226105596,-0.184332938688236,-1.1364029351048617,9.654772815992025,0.0,0.001090830782496456,-0.002181661564992912,5.1875,22.6875,-53.0
1772057758.7802587,-0.05896924493829901,1.019449277341519,-6.620895226105596,-0.184332938688236,-1.1364029351048617,9.654772815992025,0.0,0.001090830782496456,-0.002181661564992912,5.1875,22.6875,-53.0
1772057758.8066814,-0.0590315802482667,1.019449277341519,-6.627925107026235,-0.18622863400224385,-1.1342610817868137,9.693317596214678,0.0,0.003272492347489368,0.002181661564992912,5.1875,22.6875,-53.0
1772057758.8211594,-0.0590315802482667,1.019449277341519,-6.627925107026235,-0.18749019805741188,-1.1328357023297222,9.718968716879445,0.001090830782496456,-0.001090830782496456,0.001090830782496456,5.1875,22.6875,-53.0
1772057758.859527,-6.202628948303737e-05,1.0194439409752811,-6.627890488268174,-0.1838195986670451,-1.1320769162827653,9.736039251140054,-3.3680730128618263e-06,0.003272490614266243,0.001090830782496456,5.5387609605573696,23.068212750922115,-52.0625
1772057758.9060693,-6.202628948303737e-05,1.0194439409752811,-6.627890488268174,-0.1821459448152463,-1.1381341548973776,9.750744612707447,0.001089707513751127,0.0010919528957597016,0.001090830782496456,5.5387609605573696,23.068212750922115,-52.0625
1772057758.9377568,-6.202628948303737e-05,1.0194439409752811,-6.627890488268174,-0.18103214687281277,-1.1421651795316132,9.760530866560895,-2.245382008574551e-06,0.0021816604095108287,0.001090830782496456,5.163632508257623,23.19282673198041,-52.5
1772057758.950289,-6.202628948303737e-05,1.0194439409752811,-6.627890488268174,-0.18103214687281277,-1.1421651795316132,9.760530866560895,-2.245382008574551e-06,0.0021816604095108287,0.001090830782496456,5.163632508257623,23.19282673198041,-52.5
1772057758.9749634,-6.202628948303737e-05,1.0194439409752811,-6.627890488268174,-0.1869845894687188,-1.141509557087343,9.767043509180747,0.0,0.0,0.0,5.163632508257623,23.19282673198041,-52.5
1772057759.007946,-6.202628948303737e-05,1.0194439409752811,-6.627890488268174,-0.1909458735231536,-1.1410732476744636,9.771377600093272,-0.0021816604095108287,-2.245382008574551e-06,0.0,3.3511334682192,23.190961293749364,-53.0
1772057759.0267138,-6.202628948303737e-05,1.0194439409752811,-6.627890488268174,-0.1909458735231536,-1.1410732476744636,9.771377600093272,-0.0021816604095108287,-2.245382008574551e-06,0.0,3.3511334682192,23.190961293749364,-53.0
1772057759.0700781,14.590427292189187,1.0225471818247662,-6.628218562057908,-0.1902369538753031,-1.1407794458207,9.77426188918059,-1.1226910042872755e-06,0.0010908302047554143,0.002181661564992912,3.3511334682192,23.190961293749364,-53.0
1772057759.08749,14.590427292189187,1.0225471818247662,-6.628218562057908,-0.1902369538753031,-1.1407794458207,9.77426188918059,-1.1226910042872755e-06,0.0010908302047554143,0.002181661564992912,3.3511334682192,23.190961293749364,-53.0
1772057759.103137,14.420742848163584,1.0266251848206767,-6.627996644128306,-0.18307151308415265,-1.1439221482778603,9.77618135134858,0.0,0.0,-0.002181661564992912,4.039340684114515,22.504169237891393,-50.0625
1772057759.1736422,14.428541331513477,1.0271311287410319,-6.628277368807005,-0.1849966549655176,-1.1426753573479553,9.77745873197958,-0.001089707513751127,-0.0010919528957597016,0.001090830782496456,4.039340684114515,22.504169237891393,-50.0625
1772057759.2264848,14.406885109283186,1.0258385482565513,-6.628221787458797,-0.1795841526976648,-1.1451838562205292,9.774963702812915,-0.001094198277768276,0.003271367923261956,0.0,4.726583018166187,22.75487668550157,-51.25
1772057759.2649314,14.379168380830832,1.024265039793549,-6.628671523647192,-0.1826792983980661,-1.140169899953966,9.773303288773802,-0.0010908302047554143,-1.1226910042872755e-06,0.0,4.726583018166187,22.75487668550157,-51.25
1772057759.2819796,14.379168380830832,1.024265039793549,-6.628671523647192,-0.1826792983980661,-1.140169899953966,9.773303288773802,-0.0010908302047554143,-1.1226910042872755e-06,0.0,4.726583018166187,22.75487668550157,-51.25
1772057759.2986622,14.379168380830832,1.024265039793549,-6.628671523647192,-0.18473219765986404,-1.1435233879393985,9.775543413486131,-4.490764017149102e-06,0.004363320819021657,0.0,5.163632508257623,23.19282673198041,-51.25
1772057759.3276172,14.379168380830832,1.024265039793549,-6.628671523647192,-0.18610526481297943,-1.1390648768615192,9.777034191458354,-0.0010908302047554143,-1.1226910042872755e-06,0.0,5.163632508257623,23.19282673198041,-51.25
1772057759.3494692,14.379168380830832,1.024265039793549,-6.628671523647192,-0.18610526481297943,-1.1390648768615192,9.777034191458354,-0.0010908302047554143,-1.1226910042872755e-06,0.0,5.163632508257623,23.19282673198041,-51.25
1772057759.3882966,14.293891046845555,1.0262478464752467,-6.628367317326019,-0.1870121400384364,-1.1427880074152919,9.774681175838467,1.1226910042872755e-06,-0.0010908302047554143,0.001090830782496456,4.47613287238098,23.192119151961737,-51.0
1772057759.4396217,14.280031175298559,1.0254608981308602,-6.6285915530432415,-0.18426710262149523,-1.1486073763309808,9.773115270228338,1.1226910042872755e-06,-0.0010908302047554143,0.002181661564992912,4.47613287238098,23.192119151961737,-51.0
1772057759.5828557,14.20254457895733,1.0279494128493407,-6.628571641743419,-0.18244031088459806,-1.1524801013377615,9.772073177537111,0.003271367923261956,0.0010941982777682763,-0.001090830782496456,4.47613287238098,23.192119151961737,-53.0
1772057759.6297913,14.20254457895733,1.0279494128493407,-6.628571641743419,-0.18123148701707004,-1.148367136697332,9.774724788199356,0.002179415027502254,0.0021839057915194033,-0.004363323129985824,4.47613287238098,23.192119151961737,-53.0
1772057759.658109,14.032413073463985,1.0274689749648698,-6.70631254808303,-0.19715257791485039,-1.1456472187408921,9.786524740596606,0.009774809584635813,0.04146165199974433,-0.15817046346198613,4.727676550922318,21.69237724823767,-53.25
1772057759.6847079,14.300567396451164,1.0380376653608694,-6.775435484045441,-0.2073381912638993,-1.5419052260648707,9.794377477102872,-0.04362534935318656,-0.007680719073459392,0.17671458676442586,4.727676550922318,21.69237724823767,-53.25
1772057759.7448885,14.380719542348192,1.1086671351674875,-6.681385847825069,-0.34457589065668354,-1.8057447731691367,9.816328944063573,-0.0022052369206008613,0.02290518891785513,-0.03599741582238305,3.7272911278188334,22.06634784232504,-51.25
1772057759.780309,14.368747049362845,1.0818964943211813,-6.642642629594084,0.06894734271968324,-1.7299239344919717,9.81421184157537,-0.010935246631657037,0.026168698004087075,0.04799655442984406,3.7272911278188334,22.06634784232504,-51.25
1772057759.8426132,14.368747049362845,1.0818964943211813,-6.642642629594084,0.06894734271968324,-1.7299239344919717,9.81421184157537,-0.010935246631657037,0.026168698004087075,0.04799655442984406,3.7272911278188334,22.06634784232504,-51.25
1772057759.908499,14.464618354376443,1.1264737150024933,-6.615392881026765,-0.01361883212223107,-1.1704129976582507,9.77172398045828,-0.025101444310421692,0.01197331035921095,-0.015271630954950384,4.477676683330811,21.692119946412696,-52.0625
1772057759.9922502,14.478239061849568,1.139537296347909,-6.656247454613423,-0.01361883212223107,-1.1704129976582507,9.77172398045828,-0.025101444310421692,0.01197331035921095,-0.015271630954950384,4.477676683330811,21.692119946412696,-52.0625
1772057760.0681283,14.268238060740497,1.1012357108028845,-6.675542972611803,-0.07554535612436374,-1.1870690439868925,9.741041284370986,-0.017451037894078054,-0.002199623465579425,0.00545415391248228,3.3542210901188625,20.190962882651284,-52.0625
1772057760.127236,14.268238060740497,1.1012357108028845,-6.675542972611803,-0.07554535612436374,-1.1870690439868925,9.741041284370986,-0.017451037894078054,-0.002199623465579425,0.00545415391248228,3.3542210901188625,20.190962882651284,-52.0625
1772057760.161097,14.726243883996979,1.125508436584987,-6.706916527234594,-0.13684119695054345,-1.1847936738961655,9.720622292873067,0.0032792267602919666,-0.006541613155519625,0.007635815477475192,3.3542210901188625,20.190962882651284,-52.0625
1772057760.1766953,14.726243883996979,1.125508436584987,-6.706916527234594,-0.13684119695054345,-1.1847936738961655,9.720622292873067,0.0032792267602919666,-0.006541613155519625,0.007635815477475192,3.3542210901188625,20.190962882651284,-52.0625
1772057760.197544,14.69701268780592,1.1324963102344483,-6.719967622297381,-0.1776191230474068,-1.1966598802608743,9.763900581150711,-0.003262386395227658,-0.009820839915811591,0.018544123302439753,5.541719931544546,20.193214273619787,-52.0625
1772057760.213826,14.74598673866279,1.1423259565900854,-6.718630930194239,-0.1813543790496983,-1.1911521686061224,9.796046910256646,-0.004365566201030232,0.00217716964549368,0.0545415391248228,5.541719931544546,20.193214273619787,-52.0625
1772057760.2275505,14.74598673866279,1.1423259565900854,-6.718630930194239,-0.1813543790496983,-1.1911521686061224,9.796046910256646,-0.004365566201030232,0.00217716964549368,0.0545415391248228,5.541719931544546,20.193214273619787,-52.0625
1772057760.245329,14.943357349179651,1.1548403678189834,-6.723726092811666,-0.18385392144723225,-1.1741064082825172,9.827475268300578,-1.4594983055734582e-05,0.014180792661820388,0.025089107997418487,5.541719931544546,20.193214273619787,-52.0625
1772057760.262779,14.964008237753543,1.1569343756375219,-6.730281614310557,-0.2591235288285862,-1.1494579473527775,9.871806271452288,-0.010891461682489834,-0.016373679981374088,0.017453292519943295,5.542170209738247,19.75571450533465,-53.75
1772057760.3489861,15.500633166804457,1.177470712622755,-6.747780345112804,-0.3326037903523598,-1.0352143885654645,9.909798676427572,-0.006540490464515337,-0.004370056965047381,0.004363323129985824,-2042.8314875994465,17.39751213483622,-52.0625
1772057760.4709914,15.500633166804457,1.177470712622755,-6.747780345112804,-0.3326037903523598,-1.0352143885654645,9.909798676427572,-0.006540490464515337,-0.004370056965047381,0.004363323129985824,-2042.8314875994465,17.39751213483622,-52.0625
1772057760.5468118,-15.40861327406994,0.6641834708496789,6.665422293579696,-0.3314056676557822,-1.0068226682149761,9.776061553118705,-0.0021805377185065413,-0.001093075586763989,-0.006544984694978736,5.167427710175958,19.505328685005686,-53.0
1772057760.5767531,15.930769881736909,1.1948809264638918,-6.737203838910771,-0.34395434199377456,-1.0213931660879214,9.687060991498209,-0.005462009860807082,0.007630197978266464,0.006544984694978736,5.167427710175958,19.505328685005686,-53.0
1772057760.5957613,15.930769881736909,1.1948809264638918,-6.737203838910771,-0.34395434199377456,-1.0213931660879214,9.687060991498209,-0.005462009860807082,0.007630197978266464,0.006544984694978736,5.167427710175958,19.505328685005686,-53.0
1772057760.6231937,16.30439404146411,1.2218495798927744,-6.768046791793944,-0.31208635916149197,-1.1110879674901986,9.646378190497769,-0.010936369322661324,0.027259528208842487,0.02399827721492203,5.167749337457173,19.192828850516303,-53.6875
1772057760.6838555,16.558858131769806,1.2240150749720273,-6.774157411725699,-0.23401362797369946,-1.164273135031579,9.647589726234528,-0.009814103769785868,-0.003282594833304829,0.02181661564992912,6.230248774721076,19.193922383272433,-53.6875
1772057760.7263906,16.558858131769806,1.2240150749720273,-6.774157411725699,-0.23401362797369946,-1.164273135031579,9.647589726234528,-0.009814103769785868,-0.003282594833304829,0.02181661564992912,6.230248774721076,19.193922383272433,-53.6875
1772057760.769481,16.814858207616407,1.218421113073372,-6.774760233090028,-0.19214406950550078,-1.1495009493187633,9.6483959897336,0.004358830055004508,0.0043678115830388066,0.008726646259971648,6.230248774721076,19.193922383272433,-53.6875
1772057760.8365135,17.232053881685015,1.2163779981429022,-6.781026672735796,-0.1642803460585286,-1.1396702247430113,9.682383666158874,-0.004357707364000221,-0.005458641787794221,0.032724923474893676,6.2330147693395235,16.506423806663737,-55.0
1772057760.8637297,17.586029110440673,1.2304421704493078,-6.778452284103868,-0.14576144905647084,-1.1097122178047953,9.7618689841771,0.002188396555536552,-0.006542735846523912,0.08944812416470939,6.2330147693395235,16.506423806663737,-55.0
1772057760.9378426,17.825601483527223,1.251525010102327,-6.774673262571741,-0.20359856828485898,-1.1734755463122923,9.81476557540905,-0.009808490314764431,-0.0087367458570819,0.07853981633974483,5.167170408350986,19.75532855259719,-55.75
1772057761.0290828,18.43350741148131,1.2955395060019594,-6.773848468967553,-0.22309190170909968,-1.2842439851034173,9.832133946301024,0.004365566201030232,-0.00217716964549368,0.061086523819801536,5.167427710175958,19.505328685005686,-54.0625
1772057761.0868087,18.64639107118982,1.2965773508303133,-6.787514942522092,-0.21150927806980255,-1.3531368200049494,9.864871234498784,-0.007641424888309337,0.005446292186747061,0.08072147790473774,5.167427710175958,19.505328685005686,-54.0625
1772057761.1575592,18.956223189464172,1.3402630082909568,-6.76551770243075,-0.19873692601117554,-1.3659380838373225,9.82432488377602,0.005464255242815657,-0.009811858387777293,0.08399397025222712,5.543585369775592,18.380715233581363,-55.0
1772057761.1948423,19.091149081835095,1.356370258122656,-6.7700032983071905,-0.22212760674518967,-1.3439737838595334,9.812842826718866,-0.010903811283536994,-0.00437454772906453,0.05890486225480862,5.543585369775592,18.380715233581363,-55.0
1772057761.2106972,19.091149081835095,1.356370258122656,-6.7700032983071905,-0.22212760674518967,-1.3439737838595334,9.812842826718866,-0.010903811283536994,-0.00437454772906453,0.05890486225480862,5.543585369775592,18.380715233581363,-55.0
1772057761.2338173,19.091149081835095,1.356370258122656,-6.7700032983071905,-0.22212760674518967,-1.3439737838595334,9.812842826718866,-0.010903811283536994,-0.00437454772906453,0.05890486225480862,5.543585369775592,18.380715233581363,-55.0
1772057761.2869294,19.387894010894996,1.378609191598474,-6.793961956258081,-0.22351392819679988,-1.3697453262231147,9.866983299773695,-0.002186151173527978,0.004361075437013083,0.05890486225480862,5.167749337457173,19.192828850516303,-56.5
1772057761.3084984,19.48661747517442,1.3844344396620771,-6.7926122321840054,-0.20182710125726885,-1.3397793703190557,9.88806308994206,0.0032736133052705305,-0.0010874621317425526,0.04908738521234052,5.167427710175958,19.505328685005686,-55.0
1772057761.3583636,19.520480102649646,1.415259357389773,-6.794422592543327,-0.22763936381599964,-1.219525377098185,9.865295226041908,-0.00436219812801737,-0.0010953209687725636,0.03599741582238305,4.479928074299314,19.504621104987013,-57.25
1772057761.468513,19.377939780490497,1.4287300010257724,-6.799716895896084,-0.21805625672189255,-1.1394701454277136,9.830072796706146,-0.005446292186747061,-0.0076414248883093375,0.04145156973486533,4.479928074299314,19.504621104987013,-57.25
1772057761.528863,19.377939780490497,1.4287300010257724,-6.799716895896084,-0.21805625672189255,-1.1394701454277136,9.830072796706146,-0.005446292186747061,-0.0076414248883093375,0.04145156973486533,4.479928074299314,19.504621104987013,-57.25
1772057761.5903642,19.477453511045507,1.4207951603676452,-6.800669529993691,-0.24971617364286358,-1.0998528525282654,9.737606289227678,-0.015279481703605812,0.007620093759227879,0.038179077387375956,5.979219699829682,20.193664551813487,-56.5625
1772057761.6437159,19.477453511045507,1.4207951603676452,-6.800669529993691,-0.24971617364286358,-1.0998528525282654,9.737606289227678,-0.015279481703605812,0.007620093759227879,0.038179077387375956,5.979219699829682,20.193664551813487,-56.5625
1772057761.6879742,19.541301836741248,1.4202999594926813,-6.8574784928455035,-0.2528187866613533,-1.059850074036453,9.74175212392784,-0.015266009411554364,-0.005469868697837094,0.0272707695624114,6.228833614683731,20.56892165502572,-58.0625
1772057761.7592564,19.583066109555602,1.4320789646510783,-6.869525276880713,-0.2548732125265356,-1.0432640016173709,9.74451113060879,0.001089707513751127,0.0010919528957597016,-0.016362461737446838,6.228833614683731,20.56892165502572,-58.0625
1772057761.830146,19.424679820990733,1.4836193279744962,-6.854364145425623,-0.2595855199260083,-1.032229598514429,9.746347218734838,0.0010829713677254034,0.007636934124292188,0.05126904677733343,5.164082786451324,22.75532696369527,-58.0625
1772057761.896146,19.275582825592622,1.4734843767735604,-6.849226931454206,-0.2627215078604347,-1.02488632651178,9.66728643389661,0.002176046954489392,0.005456396405785646,0.008726646259971648,5.164082786451324,22.75532696369527,-58.0625
1772057761.9923813,18.572716467027053,1.4740651638055335,-6.858473594751685,-0.27277287734525596,-1.1281672368807965,9.704392739971674,-0.017464510186129503,0.010890338991485548,0.02181661564992912,5.975810450648805,23.50616279740095,-58.0625
1772057762.1021101,18.572716467027053,1.4740651638055335,-6.858473594751685,-0.27277287734525596,-1.1281672368807965,9.704392739971674,-0.017464510186129503,0.010890338991485548,0.02181661564992912,5.975810450648805,23.50616279740095,-58.0625
1772057762.1802175,18.272439640324613,1.4972964509756892,-6.898064819807051,-0.228129686371431,-1.198344773038163,9.734183016288092,0.001094198277768276,-0.003271367923261956,-0.003272492347489368,5.975424497911347,23.88116259878821,-58.0625
1772057762.3086271,18.30313097259971,1.464589608643893,-6.903347030920132,-0.19489449227467787,-1.1955978989832285,9.776270202807524,-0.0021816604095108287,-2.245382008574551e-06,0.02181661564992912,5.972722828749142,26.50616120849903,-57.75
1772057762.353563,18.36684912678101,1.4603601928095744,-6.896563195041358,-0.18953337686339874,-1.1636811096304926,9.717305850901223,0.0065382450825067625,0.00655171737455821,0.018544123302439753,5.972722828749142,26.50616120849903,-57.75
1772057762.4449372,18.395224934323853,1.4643333925204551,-6.910134377394207,-0.18931072438041024,-1.1424442856635333,9.678065733382548,-0.005457519096789933,0.003266877159244807,0.013089969389957472,6.223044323621864,26.19391867583462,-57.75
1772057762.4686122,18.417356877842433,1.4552343212733418,-6.932971586426251,-0.18581744170453798,-1.1283079737310013,9.651951873514705,0.002179415027502254,0.0021839057915194033,0.009817477042468103,6.223044323621864,26.19391867583462,-57.75
1772057762.509798,18.45328173353962,1.446953161715446,-6.95550346687727,-0.18346860141255258,-1.1423161856022945,9.741616966117803,-0.008715414728000442,-0.010917283575588441,0.01090830782496456,4.7216299580354795,27.567374136638076,-59.0
1772057762.5542638,17.942274730656887,1.4413569631733532,-6.943540207871705,-0.1417641552088866,-1.1515971803600031,9.801288083620452,0.007639179506300762,-0.0032646317772362324,0.04254240051736178,4.7216299580354795,27.567374136638076,-59.0
1772057762.5978315,17.59397540356887,1.4478924577241097,-6.943479205107295,-0.1540862179027769,-1.221371981233468,9.784131646723978,0.005454151023777071,5.613455021436377e-06,-0.016362461737446838,5.534129527707877,27.568210367569232,-57.75
1772057762.6687307,17.013512905171236,1.4414595034752662,-6.95369551740356,-0.12214509375148669,-1.267765018018505,9.739263112546137,0.007643670270317911,-0.00762795259625789,0.044724062082354694,5.534129527707877,27.568210367569232,-57.75
1772057762.7290184,16.137833737236505,1.5150545177663735,-6.960698287234001,-0.23827660501897716,-1.2703072751662061,9.788731349063813,0.005445169495742773,0.008732255093064752,0.04363323129985824,4.720472099823105,28.692373540799856,-59.0
1772057762.8239946,16.137833737236505,1.5150545177663735,-6.960698287234001,-0.23827660501897716,-1.2703072751662061,9.788731349063813,0.005445169495742773,0.008732255093064752,0.04363323129985824,4.720472099823105,28.692373540799856,-59.0
1772057762.8851779,15.782983696375679,1.5341564134541088,-6.952703629168575,-0.2347950085516957,-1.3167295100513048,9.76393693763,0.00436219812801737,0.0010953209687725636,0.00545415391248228,4.718928288873275,30.192372746348894,-58.5625
1772057762.9629366,15.782983696375679,1.5341564134541088,-6.952703629168575,-0.2347950085516957,-1.3167295100513048,9.76393693763,0.00436219812801737,0.0010953209687725636,0.00545415391248228,4.718928288873275,30.192372746348894,-58.5625
1772057763.0423384,15.853784844923608,1.5273196677663794,-7.024046881914363,-0.2293569944419013,-1.3513501328613997,9.769310211428929,-0.02727187780988965,0.0010627629296482326,0.014180800172453928,4.718928288873275,30.192372746348894,-58.5625
1772057763.0690024,15.992014761321805,1.555928556794864,-7.3662294635110195,-0.23902554057949035,-1.4647215101195072,9.73943494804552,-0.04035622681193318,-0.0044048603861802866,0.04581489286485115,5.529176467577168,32.38070781870574,-57.25
1772057763.1116338,15.956359178127771,1.558608088926331,-7.351787757795274,-0.24548050690964737,-1.5200982356297055,9.763039746187573,0.032738378434713875,-0.013056281726936356,0.01090830782496456,5.529176467577168,32.38070781870574,-57.25
1772057763.136951,15.942448819009375,1.5667811592305085,-7.3156041373616025,-0.24977621489566834,-1.556950827858186,9.778748475668237,0.01200250032532242,-0.003260141013219083,-0.02181661564992912,5.5283402366460095,33.193207388378134,-58.1875
1772057763.1953459,15.574504750060537,1.5602289339102884,-7.289737186675416,-0.20925181581255672,-1.4810777616727282,9.789202459659613,0.016370311908361225,-0.007618971068223592,0.025089107997418487,5.5283402366460095,33.193207388378134,-58.1875
1772057763.2291641,15.574504750060537,1.5602289339102884,-7.289737186675416,-0.18228328090994506,-1.4305850836839895,9.79950458093454,0.012013727235365292,-0.014168443060773228,0.006544984694978736,6.653018013526574,33.50686508107989,-57.25
1772057763.283604,15.611385940525507,1.5499751941922275,-7.248819541663777,-0.18228328090994506,-1.4305850836839895,9.79950458093454,0.012013727235365292,-0.014168443060773228,0.006544984694978736,6.653018013526574,33.50686508107989,-57.25
1772057763.312837,15.639520797219864,1.5488556855682598,-7.227450036239963,-0.18440668180433864,-1.3970034274029832,9.74614851682902,0.013084349002043536,0.005467623315828519,0.022907446432425576,6.653018013526574,33.50686508107989,-57.25
1772057763.3292398,15.66661621801973,1.558408558440569,-7.232812509796615,-0.23596888790702916,-1.4014677319655522,9.750781992680919,0.008730009711056176,-0.003263509086231945,0.013089969389957472,6.214810665222765,34.19391443876283,-58.5625
1772057763.3808055,15.66661621801973,1.558408558440569,-7.232812509796615,-0.23596888790702916,-1.4014677319655522,9.750781992680919,0.008730009711056176,-0.003263509086231945,0.013089969389957472,6.214810665222765,34.19391443876283,-58.5625
1772057763.4126506,15.682280058090385,1.549666902277569,-7.213116791289289,-0.2200994254194923,-1.4110772544528398,9.747175295686402,0.018544113480842048,1.9085747072883683e-05,0.003272492347489368,6.214810665222765,34.19391443876283,-58.5625
1772057763.4418576,15.682280058090385,1.549666902277569,-7.213116791289289,-0.2200994254194923,-1.4110772544528398,9.747175295686402,0.018544113480842048,1.9085747072883683e-05,0.003272492347489368,6.214810665222765,34.19391443876283,-58.5625
1772057763.485974,15.704306223395466,1.5284552008672432,-7.151861754760254,-0.20619336547191336,-1.417468841509342,9.751465302540634,0.0010919528957597016,-0.001089707513751127,0.003272492347489368,7.463716470424168,35.257700385151594,-59.0
1772057763.535499,14.941258574106966,1.5220808119625968,-7.099947084816148,-0.14747129906977707,-1.2751682650693739,9.829765370192419,0.01199015072427526,0.008738991239090475,0.038179077387375956,7.463716470424168,35.257700385151594,-59.0
1772057763.6124048,14.872641571668822,1.4896908723763387,-7.047875206003147,-0.127836796796112,-1.2467093035018109,9.853259638435278,0.0011043024968068616,-0.013088839766060687,-0.01090830782496456,7.713716338015674,35.25795768697657,-57.75
1772057763.6443832,14.872641571668822,1.4896908723763387,-7.047875206003147,-0.127836796796112,-1.2467093035018109,9.853259638435278,0.0011043024968068616,-0.013088839766060687,-0.01090830782496456,7.713716338015674,35.25795768697657,-57.75
1772057763.7087822,14.837623889535122,1.4987874526407279,-7.02604019935249,-0.1851979970524221,-1.288840339955277,9.86591939769351,-0.0152806043946101,0.008710923963983293,-0.022907446432425576,8.150765828107112,35.69590773345541,-57.25
1772057763.7486525,14.674116150906825,1.5059418666971363,-6.9973694768559485,-0.13276266322650512,-1.3628307776712736,9.776966388650722,0.016352348852292628,0.009834312207863039,0.028361600344907856,8.150765828107112,35.69590773345541,-57.25
1772057763.7672532,14.674116150906825,1.5059418666971363,-6.9973694768559485,-0.13276266322650512,-1.3628307776712736,9.776966388650722,0.016352348852292628,0.009834312207863039,0.028361600344907856,8.150765828107112,35.69590773345541,-57.25
1772057763.8127902,14.652012525106533,1.534925605593904,-6.958762719600412,-0.21498081018750703,-1.3787399865561618,9.717769154802966,0.009798386095725847,0.01855421769988063,0.002181661564992912,7.713716338015674,35.25795768697657,-56.1875
1772057763.8291721,14.652012525106533,1.534925605593904,-6.958762719600412,-0.21498081018750703,-1.3787399865561618,9.717769154802966,0.009798386095725847,0.01855421769988063,0.002181661564992912,7.713716338015674,35.25795768697657,-56.1875
1772057763.870854,14.510183968624842,1.5435894055795272,-6.9301268801845,-0.2630402768157856,-1.355869402368425,9.678374056953714,-0.007632443360275039,-0.0032803494512962544,0.015271630954950384,7.713716338015674,35.25795768697657,-56.1875
1772057763.9194272,14.475836263805311,1.5344429951712706,-6.875020718574958,-0.295109385332189,-1.2570215356817869,9.658847282821755,0.013088839766060685,0.0011043024968068616,0.0,8.151216106300812,35.25840796517027,-57.0
1772057763.9577656,14.45093648942364,1.4789805529198263,-6.83970757531213,-0.20612780439287373,-1.1275686829859861,9.709409555204363,0.005485586371897115,-0.030537632278130167,0.013089969389957472,8.151216106300812,35.25840796517027,-57.0
1772057764.086392,14.373706717397738,1.4742797053102337,-6.784155834852878,-0.1876487305480164,-1.117974798973562,9.765450968347595,0.005456396405785646,-0.0021760469544893925,0.05672320068981571,7.712880107084516,36.070457256648965,-56.5625
1772057764.159586,14.436823120882035,1.4832046249867377,-6.768559411106692,-0.1876487305480164,-1.117974798973562,9.765450968347595,0.005468746006832806,-0.01417517920679895,0.04036073895236887,7.711336296134684,37.570456462198,-55.75
1772057764.1880515,14.50085272274231,1.4730769375005575,-6.7694284563069935,-0.21471755120722347,-1.2090629771347978,9.7602824468367,0.01201484992636958,-0.015259273265528641,0.06326818538479445,7.711336296134684,37.570456462198,-55.75
1772057764.2582712,14.380660132299877,1.4790116580549943,-6.762360440052319,-0.23277286273804362,-1.2295398229518644,9.699975954482937,0.0021906419375451267,-0.00872439625603474,0.04363323129985824,7.711722248872142,37.19545666081074,-54.5625
1772057764.2830548,14.52819618669331,1.485900867078821,-6.746330284846312,-0.25483068630443917,-1.2364870436706616,9.659842657489168,0.012000254943313846,-0.0010784806037082543,0.0545415391248228,7.711722248872142,37.19545666081074,-54.5625
1772057764.3309822,14.606983833033741,1.4809866237005207,-6.725656505144439,-0.2695512352464986,-1.200969022225866,9.633134396658118,0.00872439625603474,0.002190641937545127,0.05672320068981571,8.837171931227623,36.75911475073798,-55.75
1772057764.3729348,14.606983833033741,1.4809866237005207,-6.725656505144439,-0.2695512352464986,-1.200969022225866,9.633134396658118,0.00872439625603474,0.002190641937545127,0.05672320068981571,8.837171931227623,36.75911475073798,-55.75
1772057764.4277523,14.592672402959051,1.4774207475675998,-6.704758988986791,-0.2559318265786909,-1.1773080760229344,9.601979900596598,0.01092177433960559,-0.0130787355470221,0.08835729338221293,8.837171931227623,36.75911475073798,-55.75
1772057764.480448,14.500484228309814,1.4832487666015923,-6.683267674675282,-0.20334396213850947,-1.1983134333529055,9.58124693148618,-2.245382008574551e-06,0.0021816604095108287,0.061086523819801536,7.712172527065843,36.757956892525605,-55.0
1772057764.537193,14.499589304255952,1.5022846226292823,-6.6667918464061335,-0.21183375496175516,-1.2123370205848307,9.691218505316456,0.005464255242815657,-0.009811858387777293,0.037088246604879506,7.712172527065843,36.757956892525605,-55.0
1772057764.5828874,14.492056097021274,1.5191867971276236,-6.6365999047515025,-0.1573404946747651,-1.1547053918802657,9.764403359237532,0.01636806652635265,-0.005437310658712762,0.08617563181722002,7.711336296134684,37.570456462198,-53.25
1772057764.6480575,14.492056097021274,1.5191867971276236,-6.6365999047515025,-0.1573404946747651,-1.1547053918802657,9.764403359237532,0.01636806652635265,-0.005437310658712762,0.08617563181722002,7.711336296134684,37.570456462198,-53.25
1772057764.6677504,14.343465273154097,1.5270380779957218,-6.601173331441818,-0.12783147200901962,-1.0528019836145723,9.813107061993623,0.012006991089339569,-0.0076234618322407405,0.06544984694978735,7.461014801261964,37.882698994862416,-53.75
1772057764.6874945,14.455696558788397,1.540456034747096,-6.598794330748044,-0.108193547062348,-0.9849864037494108,9.845518832121794,0.008734500475073325,-0.007626829905253603,0.020725784867432664,7.461014801261964,37.882698994862416,-53.75
1772057764.723404,14.235831426993794,1.5695168175113983,-6.540220965062239,-0.12857582673667925,-0.9398903210326908,9.836982497713022,0.06866504565837246,0.055703069975796236,0.002181661564992912,7.461014801261964,37.882698994862416,-53.75
1772057764.783125,14.085298825131261,1.903544737765642,-6.345183909993937,-0.14209869241430678,-0.95002070096858,9.8680978913016,0.061020252697050255,0.06442185277680955,0.05235987755982989,7.710178437922311,38.69545586635979,-53.375
1772057764.8560812,14.316560106597388,1.9318585274127558,-6.29672749126891,-0.1511427650365058,-0.9132759264889061,9.92894617864091,-0.009801754168738708,-0.015281727085614387,0.06654067773228381,7.710178437922311,38.69545586635979,-53.375
1772057764.9146514,14.579102628930759,1.9072953052475883,-6.318491280274417,-0.15700312492181526,-1.0426977465778995,9.969440034145315,0.004409351150197436,-0.04471954763095484,0.09381144729469522,8.147678206207448,38.69590614455348,-53.0
1772057764.9583025,15.074536473605454,1.6365406582248716,-6.193665910152581,-0.23113666635575303,-1.1422792609343542,9.926140896783783,0.018648523744240763,-0.10142812329518065,0.04145156973486533,8.147678206207448,38.69590614455348,-53.0
1772057765.0172179,15.074536473605454,1.6365406582248716,-6.193665910152581,-0.23113666635575303,-1.1422792609343542,9.926140896783783,0.018648523744240763,-0.10142812329518065,0.04145156973486533,8.147678206207448,38.69590614455348,-53.0
1772057765.073244,14.90926247301529,1.571760763240855,-6.146984333043454,-0.26656860258877996,-1.2392232935656227,9.824627895241543,0.010910547429562717,-0.002170433499467956,0.07526732399225546,7.710178437922311,38.69545586635979,-53.75
1772057765.1299968,14.837643550176393,1.5957271003306521,-6.144483823427272,-0.24719817016430198,-1.2596258495503432,9.843150482830186,-0.0043565846729959334,-0.006549471992549636,0.08399397025222712,7.710628716116012,38.25795609807465,-53.25
1772057765.1664355,14.837643550176393,1.5957271003306521,-6.144483823427272,-0.24719817016430198,-1.2596258495503432,9.843150482830186,-0.0043565846729959334,-0.006549471992549636,0.08399397025222712,7.710628716116012,38.25795609807465,-53.25
1772057765.239518,171.1333910375182,-52.2881981265726,-168.30851935365303,-0.23430736376772,-1.2732035226466911,9.862167281374207,-0.021809867949082563,-0.006567435048618233,0.07526732399225546,7.710628716116012,38.25795609807465,-53.25
1772057765.3680162,14.482795376871355,1.6088127784554778,-6.180314201484446,-0.22692776593125966,-1.076552172446161,9.833068144681231,-0.013088839766060685,-0.0011043024968068616,0.08835729338221293,7.022357174764454,39.007248120830496,-53.0
1772057765.4271986,14.279672361216306,1.5900943434066757,-6.177330845990896,-0.22763868296589973,-1.024262743673492,9.77182980528019,-0.008735623166077613,0.008717660110009016,0.10253809355466686,7.021971222026996,39.38224792221776,-53.75
1772057765.4822772,14.105755383582526,2.496323179120828,-6.052849632862361,-0.15449527203331154,-1.0128047405913763,9.73107637448587,0.0011031798058025743,-0.01199800956130527,0.08072147790473774,7.021971222026996,39.38224792221776,-53.75
1772057765.5730577,13.8545035369638,1.619348445351681,-6.148506433316284,-0.1058191491231107,-1.0051795675345094,9.744096762025732,0.00438689733011169,-0.022902943535846553,0.017453292519943295,7.461722381280636,37.195199358985775,-54.1875
1772057765.6087952,13.754505801865948,1.6356438160386841,-6.154237278109946,-0.20053991062840684,-1.0002359269526768,9.792903024974086,-1.1226910042872755e-06,0.0010908302047554143,0.050178215994836975,7.461722381280636,37.195199358985775,-54.1875
1772057765.6668503,13.599731592133637,1.6351677207735729,-6.1627874565567415,-0.2636099474438268,-0.9634948900132051,9.822037936057216,-0.004353216599983072,-0.009821962606815879,0.001090830782496456,8.147356578926233,39.00840597904287,-53.375
1772057765.7035031,13.169832376503319,1.6321094170262789,-6.159594649920563,-0.3055823524060142,-0.9390441403542616,9.841426893924757,-0.006549471992549636,0.004356584672995934,0.003272492347489368,8.147356578926233,39.00840597904287,-53.375
1772057765.7985933,12.617383514064915,1.673503682841884,-6.1735537543014996,-0.25322155215047104,-0.9327251418745939,9.847639805382114,-0.004358830055004508,-0.0043678115830388066,0.011999138607461015,7.459856943049591,39.00769839902419,-52.1875
1772057765.8253825,12.617383514064915,1.673503682841884,-6.1735537543014996,-0.25322155215047104,-0.9327251418745939,9.847639805382114,-0.004358830055004508,-0.0043678115830388066,0.011999138607461015,7.459856943049591,39.00769839902419,-52.1875
1772057765.8558652,12.61796849448645,1.6603782640826075,-6.18201590391383,-0.21835536760854207,-0.9485905785880205,9.851774428554217,0.0043801611840859666,-0.016357962307314067,-0.00545415391248228,7.459856943049591,39.00769839902419,-52.1875
1772057765.8916154,12.574671712511329,1.6726934061127474,-6.18793522981153,-0.1530120033084274,-0.9059593794604068,9.761645911824461,-0.006558453520583933,0.01308322631103925,-0.02399827721492203,5.958313926550718,40.506153793623405,-52.5625
1772057766.005724,12.421773731886718,1.6319191653041176,-6.214903054434543,-0.20189188069012207,-0.8839983657964737,9.724299107152627,-0.014178547279811814,-0.0021962553925665633,-0.013089969389957472,5.95985773750055,39.00615458807437,-52.1875
1772057766.0436482,12.450950082306903,1.625083832061454,-6.2015667835040995,-0.12729474760201126,-0.9495560249505333,9.699445225834664,0.006542735846523912,0.0021883965555365525,0.014180800172453928,5.95985773750055,39.00615458807437,-52.1875
1772057766.0786457,12.450950082306903,1.625083832061454,-6.2015667835040995,-0.12729474760201126,-0.9495560249505333,9.699445225834664,0.006542735846523912,0.0021883965555365525,0.014180800172453928,5.95985773750055,39.00615458807437,-52.1875
1772057766.121511,11.830780495442983,1.6192780874536952,-6.2071476981981,-0.15124360742041135,-0.9932596566850614,9.682905245453606,4.490764017149102e-06,-0.004363320819021657,-0.006544984694978736,5.5211357855467975,40.19320368094032,-51.75
1772057766.1361346,11.858924353678004,1.6278280119213042,-6.206252979456354,-0.16718130610326334,-1.0223439354028352,9.735455195712767,0.00764030219730505,-0.0043554619819916466,-0.008726646259971648,5.5211357855467975,40.19320368094032,-51.75
1772057766.1744356,11.536088573607447,1.608195267332129,-6.1898481417059505,-0.17789439375597313,-0.9380007899921604,9.77042660058883,-0.014180792661820388,-1.4594983055734582e-05,0.009817477042468103,5.5211357855467975,40.19320368094032,-51.75
1772057766.1898715,11.536088573607447,1.608195267332129,-6.1898481417059505,-0.17789439375597313,-0.9380007899921604,9.77042660058883,-0.014180792661820388,-1.4594983055734582e-05,0.009817477042468103,5.5211357855467975,40.19320368094032,-51.75
1772057766.209114,11.163145083772818,1.594926973618185,-6.194087682133332,-0.14482398686060824,-0.9386969240411551,9.830495908658175,-0.001072867148686818,-0.017454405967090917,0.01090830782496456,6.209857605092057,39.00641188989933,-52.5625
1772057766.2411895,11.254985102602232,1.5943608462328693,-6.20766627404924,-0.12290895645387243,-0.8488422252123006,9.870471362160187,-0.009801754168738708,-0.015281727085614387,0.05890486225480862,6.209857605092057,39.00641188989933,-52.5625
1772057766.2665043,11.228379069393913,1.566436891190207,-6.224805962314428,-0.12165698888022461,-0.8358902372368885,9.880349021374101,-0.022907434299863704,-2.3576511090032786e-05,0.05781403147231216,6.2094716523545985,39.381411691286594,-52.5625
1772057766.3000853,11.228379069393913,1.566436891190207,-6.224805962314428,-0.12165698888022461,-0.8358902372368885,9.880349021374101,-0.022907434299863704,-2.3576511090032786e-05,0.05781403147231216,6.2094716523545985,39.381411691286594,-52.5625
1772057766.3314023,11.193570402082255,1.5561663834134811,-6.211862568414575,-0.13420425818789447,-0.8272846051759899,9.886922493240279,-0.009811858387777293,-0.005464255242815657,0.08290313946973066,6.2094716523545985,39.381411691286594,-52.5625
1772057766.4094968,11.365601859272651,1.4950758348545317,-6.20931438187287,-0.16571525418335958,-1.0628995106178891,9.887518070785104,-0.0010829713677254034,-0.007636934124292188,0.09708393964218458,6.210179232373271,38.69391205540995,-51.375
1772057766.4261415,11.365601859272651,1.4950758348545317,-6.20931438187287,-0.16571525418335958,-1.0628995106178891,9.887518070785104,-0.0010829713677254034,-0.007636934124292188,0.09708393964218458,6.210179232373271,38.69391205540995,-51.375
1772057766.452842,11.350961474071637,1.5082396546025456,-6.2082056596153565,-0.12659061975655456,-1.1121232672294192,9.814755846271426,-0.0010751125306953924,-0.015272745557580089,0.11999138607461016,5.95985773750055,39.00615458807437,-51.25
1772057766.4994466,11.68735403299471,1.5404218489063948,-6.202405019385607,-0.16749368225628,-1.1081537743647845,9.766333398664878,-0.004354339290987359,-0.008731132402060464,0.1559888018969932,5.95985773750055,39.00615458807437,-51.25
1772057766.5232704,11.68735403299471,1.5404218489063948,-6.202405019385607,-0.16749368225628,-1.1081537743647845,9.766333398664878,-0.004354339290987359,-0.008731132402060464,0.1559888018969932,5.95985773750055,39.00615458807437,-51.25
1772057766.566624,11.573409155370861,1.5613852418164058,-6.194039412509852,-0.17800587782146832,-1.0887693574603972,9.667206566550515,-0.002174924263485105,-0.006547226610541061,0.09053895494720585,5.959471784763092,39.38115438946162,-51.75
1772057766.6343546,11.410674108687541,1.580488201289572,-6.1936013624385,-0.18505326874200406,-1.0256925955141338,9.601238767097676,-0.003259018322214796,-0.013093330530077836,0.14726215563702155,5.959471784763092,39.38115438946162,-51.75
1772057766.6658971,11.1857489498808,1.570372022310093,-6.217602918261472,-0.08602072097671702,-1.0070247573869053,9.610859720787527,1.1226910042872754e-05,-0.010908302047554143,0.13744467859455345,5.95985773750055,39.00615458807437,-50.5625
1772057766.6837418,11.459024439420437,1.5984617188041141,-6.205560624918519,-0.020132880771903335,-0.9778759699684775,9.617262357995028,-0.005445169495742773,-0.008732255093064752,0.17998707911191522,5.95985773750055,39.00615458807437,-50.5625
1772057766.7037807,11.459024439420437,1.5984617188041141,-6.205560624918519,-0.020132880771903335,-0.9778759699684775,9.617262357995028,-0.005445169495742773,-0.008732255093064752,0.17998707911191522,5.95985773750055,39.00615458807437,-50.5625
1772057766.7252684,11.459024439420437,1.5984617188041141,-6.205560624918519,-0.020132880771903335,-0.9778759699684775,9.617262357995028,-0.005445169495742773,-0.008732255093064752,0.17998707911191522,5.95985773750055,39.00615458807437,-50.5625
1772057766.7823408,11.358487296515246,1.6278020671773459,-6.203293387600918,-0.08331156300436669,-0.9753134972613967,9.631558576656433,0.001102057114798287,-0.010907179356549857,0.1505346479845109,5.95985773750055,39.00615458807437,-50.5625
1772057766.840522,11.512484195104912,1.6479631800430778,-6.17878546954746,-0.162121494249435,-1.0037520606675108,9.59758609828122,0.011994641488292409,0.004375670420068817,0.12980886311707826,5.959471784763092,39.38115438946162,-51.0
1772057766.8955505,11.350982622337252,1.6455579702203191,-6.173573065329677,-0.21456862312841193,-1.0226776069347112,9.618464245615117,0.014202123790901846,-0.02071117890729714,0.06326818538479445,5.959471784763092,39.38115438946162,-51.0
1772057766.9445724,11.119047885045617,1.6301534468310026,-6.219362747852428,-0.15674606277302197,-1.0713909109327011,9.691746052545845,-0.01745328327608663,-1.7963056068596408e-05,0.14726215563702155,5.522357969215414,39.00570430988066,-51.75
1772057767.0328057,11.589370827614964,1.6571253665631354,-6.226658906357731,-0.17417446735605407,-1.0877232948772686,9.711232648708492,0.007641424888309337,-0.005446292186747061,0.16798794050445423,6.647357373377194,39.006862168093036,-50.5625
1772057767.0911975,11.645727956460007,1.6650555604755854,-6.204362888673402,-0.14228644675477675,-1.0985475573736498,9.730890984189829,0.002187273864532265,-0.005451905641768497,0.17562375598192942,6.647357373377194,39.006862168093036,-50.5625
1772057767.1593347,12.09500914363458,1.6830872568426007,-6.205231549001123,-0.16455175442040637,-1.105795739724102,9.747318498561983,-0.013080980929030674,-0.008740113930094762,0.17562375598192942,5.960179364781764,38.69365475358498,-52.0625
1772057767.2512124,12.07650049759079,1.6395924262711503,-6.203062994344438,-0.13583443940141632,-1.157406106635665,9.758250825869291,-0.007612234922197867,-0.022915293136893715,0.17998707911191522,5.960179364781764,38.69365475358498,-52.0625
1772057767.2950757,11.983906048445888,1.6539550879657396,-6.188076318523144,-0.1334489367278794,-1.1917694433566763,9.765526167570208,-0.009806244932755857,-0.010918406266592729,0.18544123302439752,5.522679596496628,38.69320447539128,-50.5625
1772057767.3709736,12.538931025865475,1.6862645176658866,-6.201030314400731,-0.11985201744915344,-1.057136540039977,9.717877434123437,-0.010882480154455535,-0.025100321619417405,0.1407171709420428,5.960179364781764,38.69365475358498,-50.0625
1772057767.4871461,12.606879384547792,1.7371332787960683,-6.180764324038505,-0.09945212891876756,-1.071495308207826,9.705207009290485,-0.007625707214249315,-0.00982533067982874,0.18762289458939044,5.960179364781764,38.69365475358498,-52.1875
1772057767.565693,12.965420724768805,1.7626785738620896,-6.167689647131496,-0.07584090117657838,-1.081040579585415,9.643253195784963,7.858837030010927e-06,-0.0076358114332879005,0.1908953869368798,5.960179364781764,38.69365475358498,-52.1875
1772057767.6534438,13.20049419130855,1.7155864188937504,-6.135474204012402,-0.0600934647349662,-1.1208439504158785,9.705722087893383,-0.0010661310026610943,-0.023999387195623403,0.16035212502697901,6.210179232373271,38.69391205540995,-51.0
1772057767.7137067,13.213804071821837,1.7293872959254144,-6.126650322854583,-0.08311302043724385,-1.1005355381057633,9.653631309963346,0.006559576211588221,-0.014174056515794665,0.19962203319685143,6.210179232373271,38.69391205540995,-51.0
1772057767.7523263,13.523843035778084,1.746878234217165,-6.129206797712594,-0.118502937225631,-1.0870411734535401,9.712628606947966,0.007654897180360784,-0.018536254643812033,0.210530341021816,6.647357373377194,39.006862168093036,-51.75
1772057767.7801998,13.82695375035207,1.7544465735937387,-6.111482520558252,-0.1420855168375219,-1.0479548350987045,9.69836886173113,-0.00981747184279873,-1.0104219038585479e-05,0.1908953869368798,6.647357373377194,39.006862168093036,-51.75
1772057767.8224561,13.82695375035207,1.7544465735937387,-6.111482520558252,-0.1420855168375219,-1.0479548350987045,9.69836886173113,-0.00981747184279873,-1.0104219038585479e-05,0.1908953869368798,6.647357373377194,39.006862168093036,-51.75
1772057767.878921,13.984025917321784,1.7123962173890102,-6.100883695532977,-0.18488029749631596,-1.0715523493009906,9.731538828897937,-0.006524772790455316,-0.019641679831623182,0.18762289458939044,6.647679000658408,38.69436233360366,-51.75
1772057767.9359767,13.929259531819623,1.6711469817935014,-6.134487080217007,-0.1493938430542218,-1.104511523412108,9.784545860758843,0.0011121613338368726,-0.020724651199348586,0.18435040224190105,7.022678802045668,38.69474828634111,-51.0
1772057768.0006864,14.407642298396784,1.7063878689377308,-6.147591618651563,-0.17929976300283137,-1.1265005706191673,9.752919214188543,-0.01854299078983776,-0.001109915951828298,0.19744037163185854,7.022678802045668,38.69474828634111,-51.0
1772057768.072177,14.61277827895994,1.6992495802577225,-6.168087100717376,-0.14574547314183683,-1.0775218621104468,9.7318720341888,-0.019624839466558873,-0.0098376802808759,0.19634954084936207,10.567994590866299,-2009.302687537788,-51.0
1772057768.155626,15.000843977212668,1.7062387648172823,-6.164069265583256,-0.17030897780519247,-0.9847632992719276,9.717865371011376,-0.008697451671931845,-0.028370566851675074,0.17671458676442586,10.567994590866299,-2009.302687537788,-51.0
1772057768.2304761,15.456216326333742,1.650311798699756,-6.189412245918731,-0.14985950647434923,-0.9229956409366644,9.721924539960758,-0.0010717444576825307,-0.018545236171846332,0.2181661564992912,9.521969897942062,39.38482094046747,-50.5625
1772057768.3261101,15.775238322744768,1.6278192343945976,-6.204306447519736,-0.13617831265808525,-0.9521372629528266,9.731316094967323,-0.005444046804738486,-0.009823085297820165,0.19962203319685143,9.521969897942062,39.38482094046747,-50.5625
1772057768.4300592,16.356773368029486,1.6058697676907092,-6.21789039870156,-0.1343227077277381,-1.0546978737522408,9.75176069354559,-0.001081848676721116,-0.008727764329047602,0.2203478180642841,8.45947046067816,39.38372740771134,-51.0
1772057768.509268,16.82281913703857,1.6172438877443098,-6.213123369201728,-0.13925705733943705,-1.0030011896428264,9.761207057008312,-0.0032578956312105086,-0.01418416073483325,0.20616701789183017,8.147356578926233,39.00840597904287,-51.375
1772057768.5451202,16.90082543270437,1.6263891692679464,-6.197320178742885,-0.14925857426409994,-0.941843629999511,9.750767947833364,-0.007621216450232166,-0.014188651498850399,0.20616701789183017,8.147356578926233,39.00840597904287,-51.375
1772057768.5905452,17.007971120423935,1.60445522440535,-6.199828768415497,-0.12580848263248734,-0.9011129719110963,9.743820837289926,-0.008708678581974718,-0.017462264804120928,0.22580197197676638,8.834856214802876,39.00911355906154,-51.375
1772057768.6417875,17.220053412331588,1.62290803481684,-6.195993936370202,-0.14028459833333115,-0.8974539288144546,9.762613394778812,-0.006534877009493901,-0.009824207988824453,0.23452861823673804,8.834856214802876,39.00911355906154,-51.375
1772057768.7288451,17.26817303797028,1.6521574967274932,-6.18420396127602,-0.11641899287965533,-0.9418159874728321,9.775119631861045,0.0011087932608240107,-0.01745216058508234,0.20943951023931956,9.20908411071522,39.759499114573515,-51.375
1772057768.795406,17.33062977394827,1.674162606882942,-6.166209110652001,-0.13403599779029451,-0.9245413309883139,9.800167951472046,-0.0010796032947125416,-0.01090942473855843,0.2007128639793479,9.20908411071522,39.759499114573515,-51.375
1772057768.8916576,17.819161946665773,1.6888102131736715,-6.175111553038809,-0.1590921581185902,-0.9598905504208605,9.790076434706547,-0.0010661310026610943,-0.023999387195623403,0.20180369476184434,8.83447026206542,39.3841133604488,-51.375
1772057768.9410794,17.641448902714597,1.6893474605612,-6.197321576412253,-0.17583560918918276,-0.9165128623638742,9.736529079126266,-0.015260395956532929,-0.010924019721614166,0.20289452554434081,8.83447026206542,39.3841133604488,-51.375
1772057769.007642,18.05924197807301,1.7017149696334177,-6.1714298352810495,-0.17687055995200443,-0.9578824757306369,9.700893912150743,-0.005433942585699901,-0.019640557140618894,0.2083486794568231,9.209856016190136,39.009499511799,-51.0
1772057769.054104,17.866878426860012,1.7117155269184177,-6.213613333579857,-0.1775593081235047,-0.9854134912973562,9.710630223672625,-0.011978923814232387,-0.019647293286644617,0.19744037163185854,9.209856016190136,39.009499511799,-51.0
1772057769.1280744,17.866878426860012,1.7117155269184177,-6.213613333579857,-0.1775593081235047,-0.9854134912973562,9.710630223672625,-0.011978923814232387,-0.019647293286644617,0.19744037163185854,9.209856016190136,39.009499511799,-51.0
1772057769.1854665,18.292893239553194,1.71412113673015,-6.210708305848819,-0.20136113280610865,-1.074006482957456,9.753905859009224,-0.004348725835965923,-0.014185283425837537,0.17562375598192942,9.521133667010902,40.19732051013987,-51.25
1772057769.2309942,17.561456582757717,1.7158722207412758,-6.214845245109616,-0.2172009812485784,-1.132964129258691,9.77601508749057,-0.00545078295076421,-0.0032781040692876798,0.06981317007977318,9.521133667010902,40.19732051013987,-51.25
1772057769.2557383,17.561456582757717,1.7158722207412758,-6.214845245109616,-0.2172009812485784,-1.132964129258691,9.77601508749057,-0.00545078295076421,-0.0032781040692876798,0.06981317007977318,9.521133667010902,40.19732051013987,-51.25
1772057769.3021135,17.589454285324848,1.7264875626279121,-6.227311232113694,-0.17099241019374908,-1.0584075186329267,9.790728532068641,-0.00652701817246389,-0.017460019422112352,0.15271630954950383,9.958311808014827,40.51027062282295,-51.375
1772057769.3902771,18.241627297809565,1.7344854768090565,-6.179144433988501,-0.1402411223403207,-1.008790927113392,9.800520165075403,-0.013082103620034962,-0.007649283725339348,0.24652775684419906,9.958311808014827,40.51027062282295,-51.375
1772057769.449307,18.454867533613836,1.7228292881859235,-6.208014392882234,-0.12306306589629412,-1.0326419514299612,9.800346164047056,-0.004340866998935912,-0.021821094859125437,0.1810779098944117,10.70908331626426,39.76104292552335,-51.0
1772057769.5340421,19.087512448472324,1.72027866449241,-6.190528679225167,-0.16515302019441147,-1.0485696266934488,9.80023036830641,2.0208438077170958e-05,-0.01963494368559746,0.22907446432425577,10.70908331626426,39.76104292552335,-51.0
