timestamp,yaw,pitch,roll,ax,ay,az,gx,gy,gz,mx,my,mz
1773078035.071124,49.080989335558485,1.2155899487851594,-8.928865756234275,-0.20416780092686374,-1.5335721791602548,9.75006035125397,-0.001090830782496456,-0.001090830782496456,0.0,9.75,19.5,-69.6875
1773078035.0853264,48.878945647959235,1.2157496404006283,-8.93112586135722,-0.2027736249594409,-1.5323772453272937,9.750040163085348,0.0,0.001090830782496456,0.0,9.375,19.5,-69.25
1773078035.0963326,48.878945647959235,1.2157496404006283,-8.93112586135722,-0.2027736249594409,-1.5323772453272937,9.750040163085348,0.0,0.001090830782496456,0.0,9.375,19.5,-69.25
1773078035.1121624,-144.5347048267581,-16.248754763389037,-3.7584246059615096,-0.20184581642708702,-1.5315820302097436,9.750026728084649,0.0,-0.003272492347489368,0.002181661564992912,9.375,19.5,-69.25
1773078035.1250134,-144.5347048267581,-16.248754763389037,-3.7584246059615096,-0.20184581642708702,-1.5315820302097436,9.750026728084649,0.0,-0.003272492347489368,0.002181661564992912,9.375,19.5,-69.25
1773078035.1408188,-144.5347048267581,-16.248754763389037,-3.7584246059615096,-0.20184581642708702,-1.5315820302097436,9.750026728084649,0.0,-0.003272492347489368,0.002181661564992912,9.375,19.5,-69.25
1773078035.1822007,48.65530832542308,1.211132677794875,-8.927576385337625,-0.20457348192042527,-1.531052823432149,9.76005312236372,0.001090830782496456,0.0,0.001090830782496456,10.0625,19.5,-70.0625
1773078035.1996264,48.65530832542308,1.211132677794875,-8.927576385337625,-0.20457348192042527,-1.531052823432149,9.76005312236372,0.001090830782496456,0.0,0.001090830782496456,10.0625,19.5,-70.0625
1773078035.2132342,48.65530832542308,1.211132677794875,-8.927576385337625,-0.20638871283622184,-1.5340457539406063,9.766725575754279,0.001090830782496456,-0.002181661564992912,-0.001090830782496456,10.0625,19.5,-70.0625
1773078035.2273664,48.65530832542308,1.211132677794875,-8.927576385337625,-0.20638871283622184,-1.5340457539406063,9.766725575754279,0.001090830782496456,-0.002181661564992912,-0.001090830782496456,10.0625,19.5,-70.0625
1773078035.243189,48.65530832542308,1.211132677794875,-8.927576385337625,-0.2075967287332265,-1.5326924040534406,9.767820907242188,0.002181661564992912,0.0,-0.002181661564992912,10.0625,19.5,-70.0625
1773078035.2541454,48.65530832542308,1.211132677794875,-8.927576385337625,-0.2075967287332265,-1.5326924040534406,9.767820907242188,0.002181661564992912,0.0,-0.002181661564992912,10.0625,19.5,-70.0625
1773078035.2649884,48.65530832542308,1.211132677794875,-8.927576385337625,-0.2075967287332265,-1.5326924040534406,9.767820907242188,0.002181661564992912,0.0,-0.002181661564992912,10.0625,19.5,-70.0625
1773078035.2838764,48.455722398218434,1.2111407904569322,-8.930463221155184,-0.2084006498182613,-1.5351368765287603,9.765204726404418,0.001090830782496456,0.001090830782496456,0.001090830782496456,9.0,19.1875,-68.875
1773078035.3007586,48.455722398218434,1.2111407904569322,-8.930463221155184,-0.2084006498182613,-1.5351368765287603,9.765204726404418,0.001090830782496456,0.001090830782496456,0.001090830782496456,9.0,19.1875,-68.875
1773078035.3142931,48.455722398218434,1.2111407904569322,-8.930463221155184,-0.20559053861264567,-1.5367636456545386,9.763463687281536,0.0,-0.001090830782496456,0.001090830782496456,9.0,19.1875,-68.875
1773078035.3327549,48.455722398218434,1.2111407904569322,-8.930463221155184,-0.20559053861264567,-1.5367636456545386,9.763463687281536,0.0,-0.001090830782496456,0.001090830782496456,9.0,19.1875,-68.875
1773078035.36306,48.301585286866874,1.2119187521628396,-8.92631541982131,-0.20037532928898807,-1.5378462423355423,9.76230504519394,0.0,-0.001090830782496456,0.001090830782496456,9.75,19.5,-69.25
1773078035.5520492,48.301585286866874,1.2119187521628396,-8.92631541982131,-0.20037532928898807,-1.5378462423355423,9.76230504519394,0.0,-0.001090830782496456,0.001090830782496456,9.75,19.5,-69.25
1773078035.61008,48.10246123611714,1.2119345505093466,-8.929300042925359,-0.1969046657417993,-1.538566698333353,9.761533981827526,-0.001090830782496456,0.001090830782496456,-0.001090830782496456,10.75,19.1875,-68.5
1773078035.691833,47.98597464695776,1.2094661667300988,-8.927280598221255,-0.1945949779209973,-1.5390461537518751,9.761020847770519,-0.001090830782496456,-0.001090830782496456,0.001090830782496456,10.75,19.5,-68.5
1773078035.7412684,47.91865655599562,1.213157855187727,-8.932121665963454,-0.19640301818447647,-1.5393652259770336,9.764024474494983,-0.001090830782496456,0.0,0.001090830782496456,10.75,19.5,-68.5
1773078035.7938561,47.733067515764766,1.2117052610028627,-8.928010044523164,-0.19760624878268876,-1.536232453271287,9.766023354527405,0.0,-0.001090830782496456,-0.002181661564992912,9.75,19.875,-68.0625
1773078035.818824,47.733067515764766,1.2117052610028627,-8.928010044523164,-0.19760624878268876,-1.536232453271287,9.766023354527405,0.0,-0.001090830782496456,-0.002181661564992912,9.75,19.875,-68.0625
1773078035.8477936,47.61885987903875,1.211917898198166,-8.93302542738321,-0.19840698530483256,-1.5341476280309767,9.767353586860029,0.002181661564992912,0.001090830782496456,-0.001090830782496456,9.75,19.875,-68.0625
1773078035.9348466,47.61885987903875,1.211917898198166,-8.93302542738321,-0.19840698530483256,-1.5341476280309767,9.767353586860029,0.002181661564992912,0.001090830782496456,-0.001090830782496456,9.75,19.875,-68.0625
1773078035.9676638,47.5106136980069,1.2163704736692373,-8.928392402575465,-0.20263960471585574,-1.5318368823481174,9.757685476407634,-0.002181661564992912,0.002181661564992912,0.001090830782496456,10.0625,18.375,-69.6875
1773078036.011162,47.5106136980069,1.2163704736692373,-8.928392402575465,-0.20263960471585574,-1.5318368823481174,9.757685476407634,-0.002181661564992912,0.002181661564992912,0.001090830782496456,10.0625,18.375,-69.6875
1773078036.0375628,47.31240710769708,1.2135908155100545,-8.925127410382297,-0.20510173915940466,-1.531222424683352,9.758459710404203,0.0,0.002181661564992912,0.0,9.75,20.25,-69.25
1773078036.164513,47.15818865135333,1.211005864080612,-8.92999173835588,-0.2067402621277426,-1.5308135099713922,9.75897495448016,-0.001090830782496456,0.003272492347489368,-0.001090830782496456,10.0625,19.875,-69.25
1773078036.204892,47.15818865135333,1.211005864080612,-8.92999173835588,-0.2067402621277426,-1.5308135099713922,9.75897495448016,-0.001090830782496456,0.003272492347489368,-0.001090830782496456,10.0625,19.875,-69.25
1773078036.22092,47.15818865135333,1.211005864080612,-8.92999173835588,-0.20783068085967066,-1.5305413817984597,9.755972731949734,0.0,0.0,-0.001090830782496456,10.0625,19.875,-69.25
1773078036.2631073,46.96706671010249,1.2117099578082011,-8.932910473985814,-0.20521123063767405,-1.5370505069538827,9.75397478639276,-0.001090830782496456,0.003272492347489368,0.0,9.75,19.5,-68.5
1773078036.4099836,46.74560172500577,1.2136241201531042,-8.927069476662126,-0.20346801577611157,-1.5413822570331246,9.752645175943108,0.001090830782496456,0.001090830782496456,-0.001090830782496456,9.75,19.5,-68.5
1773078036.4412215,46.752125384912254,1.2143013146507438,-8.926693221486824,-0.20565303746604705,-1.544264988322041,9.755105446748907,-0.002181661564992912,0.001090830782496456,0.001090830782496456,10.5,19.1875,-69.25
1773078036.6141212,46.56149705983868,1.2150152298407912,-8.929725197955019,-0.2071071449924075,-1.542838302085277,9.75674272948714,-0.001090830782496456,0.0,-0.001090830782496456,9.75,19.875,-69.25
1773078036.635389,46.44804509506333,1.2124490642770487,-8.928436045953067,-0.20871882573378733,-1.53791190241259,9.758557435077728,0.001090830782496456,0.001090830782496456,0.001090830782496456,10.0625,19.875,-69.6875
1773078036.7393823,46.27918722476412,1.215046399587238,-8.930932408510287,-0.20914739283748976,-1.5352652826738378,9.759039989158735,-0.002181661564992912,0.0,0.001090830782496456,10.0625,19.875,-69.6875
1773078036.7765381,46.27918722476412,1.215046399587238,-8.930932408510287,-0.2094325994575955,-1.5335039868023776,9.759361123509162,-0.001090830782496456,-0.001090830782496456,-0.001090830782496456,10.5,19.5,-70.0625
1773078036.8212938,46.27918722476412,1.215046399587238,-8.930932408510287,-0.20962240127730916,-1.5356769757822044,9.759574834832065,0.0,0.002181661564992912,0.001090830782496456,10.5,19.5,-70.0625
1773078036.876317,46.27918722476412,1.215046399587238,-8.930932408510287,-0.20640360056078397,-1.5337779639670823,9.756371945622826,0.0,0.0,-0.001090830782496456,10.5,19.875,-70.5
1773078036.8907123,46.26428619885215,1.213840600342923,-8.93116735440337,-0.20426152464029643,-1.5325141928174706,9.757585570340014,-0.001090830782496456,-0.001090830782496456,0.001090830782496456,10.5,19.875,-70.5
1773078036.9078114,46.26428619885215,1.213840600342923,-8.93116735440337,-0.20426152464029643,-1.5325141928174706,9.757585570340014,-0.001090830782496456,-0.001090830782496456,0.001090830782496456,10.5,19.875,-70.5
1773078036.9221807,46.26428619885215,1.213840600342923,-8.93116735440337,-0.1994908853364485,-1.5316731672346526,9.755048112324907,-0.001090830782496456,0.0,0.0,9.75,19.1875,-68.5625
1773078036.9624326,46.26428619885215,1.213840600342923,-8.93116735440337,-0.1996611898785899,-1.534458585811478,9.753359462361116,-0.001090830782496456,0.0,0.0,9.75,19.1875,-68.5625
1773078037.0030704,46.10391286755279,1.2142287275905477,-8.927352814784363,-0.19977452564895865,-1.536312250759191,9.75223568467367,0.0,0.001090830782496456,-0.001090830782496456,9.375,19.875,-68.5625
1773078037.0286553,46.07414556995889,1.2118188382978756,-8.927826085130173,-0.19984994933809552,-1.5375458440751,9.751487823176094,0.0,0.0,0.0,9.375,19.875,-68.5625
1773078037.1735198,45.95924883387115,1.2121459067755338,-8.932580886489358,-0.19993354625580761,-1.535568003050246,9.750658920257283,0.001090830782496456,0.0,0.001090830782496456,9.75,19.5,-69.25
1773078037.2027438,45.950865158543756,1.21161559472069,-8.932437894955434,-0.19995577577557694,-1.5337054438312694,9.747093392363281,-0.001090830782496456,0.001090830782496456,0.001090830782496456,10.0625,19.5,-69.25
1773078037.3005474,45.950865158543756,1.21161559472069,-8.932437894955434,-0.19995577577557694,-1.5337054438312694,9.747093392363281,-0.001090830782496456,0.001090830782496456,0.001090830782496456,10.0625,19.5,-69.25
1773078037.4213173,45.96763288279771,1.212676218934235,-8.932723877911096,-0.20555821203658603,-1.5255208541634577,9.742090625738086,-0.001090830782496456,0.001090830782496456,0.0,9.75,19.1875,-69.6875
1773078037.640607,45.73082023394813,1.2136266820487402,-8.92692057950333,-0.20869087796587835,-1.52831737714014,9.743961278944786,0.001090830782496456,-0.001090830782496456,0.0,9.75,19.5,-69.25
1773078037.7306468,45.722447879819725,1.2130963697037846,-8.926778851146748,-0.2094202220792101,-1.5292548077583785,9.7473255991066,0.0,0.001090830782496456,0.0,9.75,19.5,-69.75
1773078037.9278102,45.784326896626716,1.2113465958919785,-8.929070846200764,-0.20982912285384736,-1.5242091243382456,9.74252155410233,-0.001090830782496456,0.002181661564992912,0.001090830782496456,10.75,19.5,-70.5
1773078037.9883718,45.784326896626716,1.2113465958919785,-8.929070846200764,-0.2098862831680582,-1.5228011252281028,9.738332954380176,-0.001090830782496456,-0.001090830782496456,0.001090830782496456,9.75,19.1875,-69.0
1773078038.0518415,45.784326896626716,1.2113465958919785,-8.929070846200764,-0.2098862831680582,-1.5228011252281028,9.738332954380176,-0.001090830782496456,-0.001090830782496456,0.001090830782496456,9.75,19.1875,-69.0
1773078038.0804932,45.784326896626716,1.2113465958919785,-8.929070846200764,-0.20437839143343328,-1.53238304176748,9.743725795475271,0.001090830782496456,-0.001090830782496456,0.002181661564992912,10.5,20.6875,-70.5
1773078038.1563258,-0.001284812730521444,1.2113086989799193,-8.928792609336323,-1.2420474737584994,-0.9189718265646019,9.758363801637502,0.0,0.0,0.0,21.07435501740707,5.855059081707848,-69.25
1773078038.9639695,-0.001284812730521444,1.2113086989799193,-8.928792609336323,-1.2428102597632251,-0.9224371204775536,9.750601407627045,0.0023243432481673994,0.0007395859956136097,-0.002181661564992912,21.56709993025143,6.334494896876054,-69.0
1773078039.3120897,-0.001284812730521444,1.2113086989799193,-8.928792609336323,-1.238880776506694,-0.916668400300915,9.759357348844615,0.0015636402002884757,0.0015214060957578475,0.0,22.046535745419636,5.841749984031692,-69.25
1773078039.3985817,-0.001284812730521444,1.2113086989799193,-8.928792609336323,-1.2356023177608961,-0.9213908409824269,9.762917434542294,0.0015425231480231617,-2.111705226531408e-05,0.001090830782496456,22.046535745419636,5.841749984031692,-69.25
1773078039.4488297,-0.001284812730521444,1.2113086989799193,-8.928792609336323,-1.2310230320495477,-0.9222008214363415,9.761941520098016,-0.0007818201001442379,-0.0007607030478789238,0.0,20.551334128132662,6.39259898662897,-69.25
1773078039.4773018,-0.001284812730521444,1.2113086989799193,-8.928792609336323,-1.2310230320495477,-0.9222008214363415,9.761941520098016,-0.0007818201001442379,-0.0007607030478789238,0.0,20.551334128132662,6.39259898662897,-69.25
1773078039.511136,-37.57023664771911,-19.050679361976705,127.60498116888947,-1.2378187322106213,-0.9268758936119618,9.766431097636032,-0.0007818201001442379,-0.0007607030478789238,0.0,20.769259498663665,6.168624026245169,-70.0625
1773078039.8161857,-0.001284812730521444,1.2113086989799193,-8.928792609336323,-1.2396257982509886,-0.9281190567834655,9.767624935344031,0.0,0.0,0.001090830782496456,20.551334128132662,6.39259898662897,-70.0625
1773078039.8549743,-0.001284812730521444,1.2113086989799193,-8.928792609336323,-1.2431611315811153,-0.9265488599482548,9.765074309295343,-0.0015425231480231617,2.111705226531408e-05,-0.001090830782496456,20.551334128132662,6.39259898662897,-70.0625
1773078039.873743,-0.001284812730521444,1.2113086989799193,-8.928792609336323,-1.2431611315811153,-0.9265488599482548,9.765074309295343,-0.0015425231480231617,2.111705226531408e-05,-0.001090830782496456,20.551334128132662,6.39259898662897,-70.0625
1773078039.887255,-0.001284812730521444,1.2113086989799193,-8.928792609336323,-1.2431611315811153,-0.9265488599482548,9.765074309295343,-0.0015425231480231617,2.111705226531408e-05,-0.001090830782496456,20.551334128132662,6.39259898662897,-70.0625
1773078039.9113646,-0.001284812730521444,1.2113086989799193,-8.928792609336323,-1.2431163483812495,-0.9231711604281574,9.763376896152302,-0.0007607030478789238,0.0007818201001442379,-0.001090830782496456,21.24022588803795,5.057218650120082,-69.25
1773078039.928514,-0.001284812730521444,1.2113086989799193,-8.928792609336323,-1.240689037623196,-0.9185905880623959,9.765592398374274,-0.0015425231480231617,2.111705226531408e-05,-0.001090830782496456,21.24022588803795,5.057218650120082,-69.25
1773078039.9705012,-0.001284812730521444,1.2113086989799193,-8.928792609336323,-1.240689037623196,-0.9185905880623959,9.765592398374274,-0.0015425231480231617,2.111705226531408e-05,-0.001090830782496456,21.24022588803795,5.057218650120082,-69.25
1773078040.021854,-0.001284812730521444,1.2113086989799193,-8.928792609336323,-1.2390736894285492,-0.9155422683213277,9.767066790354216,-0.0007818201001442379,-0.0007607030478789238,0.0,20.28982368349546,6.661368939089532,-69.0
1773078040.0697682,-0.001284812730521444,1.2113086989799193,-8.928792609336323,-1.2357956324971233,-0.9184893937394107,9.762010730243349,-0.0015425231480231617,2.111705226531408e-05,-0.001090830782496456,20.760790072869746,5.549963562964444,-69.75
1773078040.1813297,-0.001284812730521444,1.2113086989799193,-8.928792609336323,-1.2358819399523564,-0.9202051837351123,9.7579930068083,-0.0007607030478789238,0.0007818201001442379,0.0,20.760790072869746,5.549963562964444,-69.75
1773078040.2251868,-0.001284812730521444,1.2113086989799193,-8.928792609336323,-1.2358819399523564,-0.9202051837351123,9.7579930068083,-0.0007607030478789238,0.0007818201001442379,0.0,20.760790072869746,5.549963562964444,-69.75
1773078040.3173468,-0.001284812730521444,1.2113086989799193,-8.928792609336323,-1.2360206950885688,-0.9252548385543263,9.764682398304988,0.0008240542046748663,0.003845749343925247,-0.001090830782496456,20.77530908851646,6.6105243571599726,-70.1875
1773078040.3500328,-0.001284812730521444,1.2113086989799193,-8.928792609336323,-1.2360206950885688,-0.9252548385543263,9.764682398304988,0.0008240542046748663,0.003845749343925247,-0.001090830782496456,20.77530908851646,6.6105243571599726,-70.1875
1773078040.384101,-0.001284812730521444,1.2113086989799193,-8.928792609336323,-1.2408267326704574,-0.9293730138174932,9.766461195473472,0.0,0.0,-0.002181661564992912,20.993234459047464,6.3865493967761715,-70.5
1773078040.4174058,-0.001284812730521444,1.2113086989799193,-8.928792609336323,-1.2408267326704574,-0.9293730138174932,9.766461195473472,0.0,0.0,-0.002181661564992912,20.993234459047464,6.3865493967761715,-70.5
1773078040.4659567,-0.001284812730521444,1.2113086989799193,-8.928792609336323,-1.2392300809166388,-0.9274481113190737,9.764299853411313,0.0007818201001442379,0.0007607030478789238,0.001090830782496456,20.993234459047464,6.3865493967761715,-70.5
1773078040.5082269,-0.001284812730521444,1.2113086989799193,-8.928792609336323,-1.238167527010241,-0.9261671102089454,9.766206616120037,-0.0007607030478789238,0.0007818201001442379,0.0,20.993234459047464,6.3865493967761715,-70.5
1773078040.523313,-0.001284812730521444,1.2113086989799193,-8.928792609336323,-1.2374604092550383,-0.9253146182798749,9.76078532198812,-0.0007818201001442379,-0.0007607030478789238,0.0,20.993234459047464,6.3865493967761715,-70.5
1773078040.5372126,-0.001284812730521444,1.2113086989799193,-8.928792609336323,-1.2369898302879738,-0.9247472944240375,9.763867734717792,0.000802937152409552,0.0023032261959020856,0.0,20.993234459047464,6.3865493967761715,-70.5
1773078040.588026,-0.001284812730521444,1.2113086989799193,-8.928792609336323,-1.2390741732809079,-0.9267024978019128,9.765919045956583,-0.0015636402002884757,-0.0015214060957578475,0.001090830782496456,20.455694554126342,5.863528507501765,-69.25
1773078040.6947796,-0.001284812730521444,1.2113086989799193,-8.928792609336323,-1.2451267823920937,-0.9232086477312281,9.76728417067135,-0.0015425231480231617,2.111705226531408e-05,0.001090830782496456,20.455694554126342,5.863528507501765,-69.25
1773078040.7183778,-0.001284812730521444,1.2113086989799193,-8.928792609336323,-1.2451267823920937,-0.9232086477312281,9.76728417067135,-0.0015425231480231617,2.111705226531408e-05,0.001090830782496456,20.455694554126342,5.863528507501765,-69.25
1773078040.7392602,-0.001284812730521444,1.2113086989799193,-8.928792609336323,-1.249154726143514,-0.92088352953805,9.768192645919584,-0.0007818201001442379,-0.0007607030478789238,-0.001090830782496456,21.553790832575274,5.362314168863486,-69.75
1773078040.8540087,-0.001284812730521444,1.2113086989799193,-8.928792609336323,-1.2424395164766626,-0.9241959624036614,9.768797226048951,2.1117052265314135e-05,0.0015425231480231617,0.0,21.553790832575274,5.362314168863486,-69.75
1773078040.8993165,-0.001284812730521444,1.2113086989799193,-8.928792609336323,-1.23797061945718,-0.9264003494734262,9.769199567371443,-0.0007607030478789238,0.0007818201001442379,-0.002181661564992912,21.044079040977024,6.8720348017971755,-70.5
1773078040.9269612,-0.001284812730521444,1.2113086989799193,-8.928792609336323,-1.2373293694780776,-0.9254698364049336,9.769467321027113,0.0007818201001442379,0.0007607030478789238,-0.001090830782496456,21.044079040977024,6.8720348017971755,-70.5
1773078040.9665534,-0.001284812730521444,1.2113086989799193,-8.928792609336323,-1.2373293694780776,-0.9254698364049336,9.769467321027113,0.0007818201001442379,0.0007607030478789238,-0.001090830782496456,21.044079040977024,6.8720348017971755,-70.5
1773078041.0014477,-0.001284812730521444,1.2113086989799193,-8.928792609336323,-1.2405038017935806,-0.9204454661651019,9.766418977889144,0.0007607030478789238,-0.0007818201001442379,0.001090830782496456,21.07435501740707,5.855059081707848,-69.75
1773078041.0226965,-0.001284812730521444,1.2113086989799193,-8.928792609336323,-1.2390151740254514,-0.921506928083649,9.764271758080543,-0.0031061633483116377,-0.0015002890434925337,-0.001090830782496456,21.07435501740707,5.855059081707848,-69.75
1773078041.0440798,-0.001284812730521444,1.2113086989799193,-8.928792609336323,-1.2380245088748232,-0.9222133191331355,9.759497695576618,0.0007818201001442379,0.0007607030478789238,0.0,20.77530908851646,6.6105243571599726,-69.75
1773078041.079998,-0.001284812730521444,1.2113086989799193,-8.928792609336323,-1.2380245088748232,-0.9222133191331355,9.759497695576618,0.0007818201001442379,0.0007607030478789238,0.0,20.77530908851646,6.6105243571599726,-69.75
1773078041.1283479,-0.001284812730521444,1.2113086989799193,-8.928792609336323,-1.237365232283535,-0.9226834144856637,9.756320610310029,2.1117052265314135e-05,0.0015425231480231617,0.0,20.77530908851646,6.6105243571599726,-69.75
1773078041.1925883,-0.001284812730521444,1.2113086989799193,-8.928792609336323,-1.2429171925860467,-0.9215441795600374,9.749454130997453,-0.0023243432481673994,-0.0007395859956136097,0.002181661564992912,20.78256859633982,7.140804754257737,-70.1875
1773078041.231846,-0.001284812730521444,1.2113086989799193,-8.928792609336323,-1.2429171925860467,-0.9215441795600374,9.749454130997453,-0.0023243432481673994,-0.0007395859956136097,0.002181661564992912,20.78256859633982,7.140804754257737,-70.1875
1773078041.257791,-0.001284812730521444,1.2113086989799193,-8.928792609336323,-1.2453515177438126,-0.9221733526022544,9.746291618569241,-0.0007607030478789238,0.0007818201001442379,-0.001090830782496456,19.976258738958137,6.3562734203461275,-70.0625
1773078041.3161604,-0.001284812730521444,1.2113086989799193,-8.928792609336323,-1.242176517865504,-0.9179265581005013,9.744187001875845,-0.0007818201001442379,-0.0007607030478789238,-0.001090830782496456,19.976258738958137,6.3562734203461275,-70.0625
1773078041.4141471,-0.001284812730521444,1.2113086989799193,-8.928792609336323,-1.2400635909135622,-0.9151003637993874,9.74613151468382,-0.0015636402002884757,-0.0015214060957578475,0.001090830782496456,21.07435501740707,5.855059081707848,-69.25
1773078041.4539762,-0.001284812730521444,1.2113086989799193,-8.928792609336323,-1.2410549696687894,-0.9155523141291677,9.754115789650532,-0.0007607030478789238,0.0007818201001442379,0.0,21.07435501740707,5.855059081707848,-69.25
1773078041.5104265,-0.001284812730521444,1.2113086989799193,-8.928792609336323,-1.2441122291947708,-0.9181858330915331,9.759429235450686,0.0015636402002884757,0.0015214060957578475,-0.001090830782496456,22.323775123674114,6.721920891949619,-69.375
1773078041.595267,-0.001284812730521444,1.2113086989799193,-8.928792609336323,-1.247500786237562,-0.9211047312588001,9.759747222432258,-0.00158475725255379,-0.0030639292437810092,0.0,20.23776918359534,6.087503467885566,-69.25
1773078041.6526031,-0.001284812730521444,1.2113086989799193,-8.928792609336323,-1.2484018481168,-0.9218809046667401,9.756486667645058,0.0015214060957578475,-0.0015636402002884757,-0.002181661564992912,20.23776918359534,6.087503467885566,-69.25
1773078041.7157555,-0.001284812730521444,1.2113086989799193,-8.928792609336323,-1.2484018481168,-0.9218809046667401,9.756486667645058,0.0015214060957578475,-0.0015636402002884757,-0.002181661564992912,20.23776918359534,6.087503467885566,-69.25
1773078041.7846236,-0.001284812730521444,1.2113086989799193,-8.928792609336323,-1.2466687436653996,-0.924794947438103,9.7610070282716,0.0022821091436367714,-0.0023454603004327136,-0.002181661564992912,20.769259498663665,6.168624026245169,-69.75
1773078041.841716,-0.001284812730521444,1.2113086989799193,-8.928792609336323,-1.2455153820130378,-0.9267342103504543,9.760670166065507,-0.0007818201001442379,-0.0007607030478789238,0.001090830782496456,20.769259498663665,6.168624026245169,-69.75
1773078041.8842697,-0.001284812730521444,1.2113086989799193,-8.928792609336323,-1.244747832717285,-0.9280247681556381,9.76044598803035,-0.0015636402002884757,-0.0015214060957578475,0.001090830782496456,20.769259498663665,6.168624026245169,-69.75
1773078041.9849534,-0.001284812730521444,1.2113086989799193,-8.928792609336323,-1.2418395291962447,-0.9265508688919999,9.760296800052185,-2.1117052265314135e-05,-0.0015425231480231617,0.0,20.993234459047464,6.3865493967761715,-69.0
1773078042.0408301,-0.001284812730521444,1.2113086989799193,-8.928792609336323,-1.2399040856908718,-0.9255700053965824,9.756852405411935,0.0015636402002884757,0.0015214060957578475,-0.001090830782496456,20.993234459047464,6.3865493967761715,-69.0
1773078042.0846992,-0.001284812730521444,1.2113086989799193,-8.928792609336323,-1.2399040856908718,-0.9255700053965824,9.756852405411935,0.0015636402002884757,0.0015214060957578475,-0.001090830782496456,20.993234459047464,6.3865493967761715,-69.0
1773078042.1162207,-0.001284812730521444,1.2113086989799193,-8.928792609336323,-1.2386160696583663,-0.9249172516973452,9.754560199255259,-0.0007818201001442379,-0.0007607030478789238,0.0,21.553790832575274,5.362314168863486,-69.75
1773078042.1390028,-0.001284812730521444,1.2113086989799193,-8.928792609336323,-1.237758909376816,-0.9244828514022394,9.75637987337093,0.000802937152409552,0.0023032261959020856,-0.001090830782496456,21.553790832575274,5.362314168863486,-69.75
1773078042.1959713,-0.001284812730521444,1.2113086989799193,-8.928792609336323,-1.2347909707457478,-0.9218610117919032,9.757590846167819,0.0,0.0,-0.001090830782496456,20.77530908851646,6.6105243571599726,-69.75
1773078042.2383828,-0.001284812730521444,1.2113086989799193,-8.928792609336323,-1.2347909707457478,-0.9218610117919032,9.757590846167819,0.0,0.0,-0.001090830782496456,20.77530908851646,6.6105243571599726,-69.75
1773078042.3305209,-0.001284812730521444,1.2113086989799193,-8.928792609336323,-1.2362964298637946,-0.9236205607334598,9.75336179889537,0.00158475725255379,0.0030639292437810092,0.0,21.741440226676232,6.1553149285690125,-70.0625
1773078042.354635,-0.001284812730521444,1.2113086989799193,-8.928792609336323,-1.2386127230444068,-0.9259526691172734,9.758927463025753,0.0015425231480231617,-2.111705226531408e-05,0.0,21.741440226676232,6.1553149285690125,-70.0625
1773078042.393048,-0.001284812730521444,1.2113086989799193,-8.928792609336323,-1.23775668224261,-0.9251719101288312,9.762631350331981,0.0,0.0,0.0,21.530774363968586,6.909570286050577,-69.375
1773078042.4645865,126.90183410821503,48.68182234237784,154.47661230062755,-1.2347894886128126,-0.9223195726771597,9.758406022544504,0.0015425231480231617,-2.111705226531408e-05,-0.001090830782496456,21.530774363968586,6.909570286050577,-69.375
1773078042.4954174,-0.001284812730521444,1.2113086989799193,-8.928792609336323,-1.235212362436711,-0.9227541250322819,9.755594114101942,0.000802937152409552,0.0023032261959020856,-0.001090830782496456,21.83586988271199,6.596005341513257,-69.375
1773078042.544423,-0.001284812730521444,1.2113086989799193,-8.928792609336323,-1.2378912882815094,-0.9253760658368606,9.757067932151813,0.0,0.0,0.0,21.83586988271199,6.596005341513257,-69.375
1773078042.6126204,-0.001284812730521444,1.2113086989799193,-8.928792609336323,-1.2396740835056603,-0.9271209381533098,9.758048741600374,-0.0007818201001442379,-0.0007607030478789238,-0.001090830782496456,21.312848993437584,7.1335452464343785,-69.75
1773078042.6582818,-0.001284812730521444,1.2113086989799193,-8.928792609336323,-1.2408605138122049,-0.9282821311884056,9.752011235917395,0.0007607030478789238,-0.0007818201001442379,0.0,21.312848993437584,7.1335452464343785,-69.75
1773078042.7416193,-0.001284812730521444,1.2113086989799193,-8.928792609336323,-1.2440475779667195,-0.9313876432483984,9.74799334332873,-0.0015425231480231617,2.111705226531408e-05,-0.001090830782496456,21.262004411508027,6.6480598414133745,-70.5625
1773078042.7665985,-0.001284812730521444,1.2113086989799193,-8.928792609336323,-1.2461685335597097,-0.9334543268334808,9.745319480693775,0.0007607030478789238,-0.0007818201001442379,0.0,21.262004411508027,6.6480598414133745,-70.5625
1773078042.8439958,-0.001284812730521444,1.2113086989799193,-8.928792609336323,-1.2475152488419268,-0.9300994225676684,9.743540054979213,0.0,0.0,0.002181661564992912,20.769259498663665,6.168624026245169,-70.5625
1773078042.891593,-0.001284812730521444,1.2113086989799193,-8.928792609336323,-1.2490078998633432,-0.926380966747612,9.74713904938199,-0.0015425231480231617,2.111705226531408e-05,0.0,20.77530908851646,6.6105243571599726,-69.75
1773078043.0464082,-0.001284812730521444,1.2113086989799193,-8.928792609336323,-1.2470720643326825,-0.9277896884839361,9.748096069322628,0.0,0.0,-0.003272492347489368,20.77530908851646,6.6105243571599726,-69.75
1773078043.1056962,-0.001284812730521444,1.2113086989799193,-8.928792609336323,-1.2457837874117275,-0.9287271770630068,9.755423178817146,2.1117052265314135e-05,0.0015425231480231617,0.001090830782496456,20.23776918359534,6.087503467885566,-69.375
1773078043.24465,-0.001284812730521444,1.2113086989799193,-8.928792609336323,-1.2457837874117275,-0.9287271770630068,9.755423178817146,2.1117052265314135e-05,0.0015425231480231617,0.001090830782496456,20.23776918359534,6.087503467885566,-69.375
1773078043.3416257,-0.001284812730521444,1.2113086989799193,-8.928792609336323,-1.245951422196397,-0.9313186756286368,9.760199173044718,0.0,0.0,0.0,20.455694554126342,5.863528507501765,-69.75
1773078043.4030387,-0.001284812730521444,1.2113086989799193,-8.928792609336323,-1.2450380125884224,-0.9310756785864358,9.760132547436351,2.1117052265314135e-05,0.0015425231480231617,0.002181661564992912,20.455694554126342,5.863528507501765,-69.75
1773078043.4803667,-0.001284812730521444,1.2113086989799193,-8.928792609336323,-1.2444301486977694,-0.9309139667693058,9.7533979854236,-0.0015636402002884757,-0.0015214060957578475,0.0,21.24869531383187,5.675879113400807,-70.1875
1773078043.5770972,-0.001284812730521444,1.2113086989799193,-8.928792609336323,-1.2440256220688242,-0.9308063493614451,9.745571097926783,-0.0007818201001442379,-0.0007607030478789238,0.001090830782496456,21.24869531383187,5.675879113400807,-70.1875
1773078043.6961558,-0.001284812730521444,1.2113086989799193,-8.928792609336323,-1.2413589060773158,-0.9284019801121666,9.743707503437033,2.1117052265314135e-05,0.0015425231480231617,-0.001090830782496456,21.47267027421567,5.89380448393181,-69.0
1773078043.7920368,-0.001284812730521444,1.2113086989799193,-8.928792609336323,-1.2395842363741365,-0.926801899235336,9.745812413829137,-0.0015636402002884757,-0.0015214060957578475,0.001090830782496456,21.47267027421567,5.89380448393181,-69.0
1773078043.8552263,-0.001284812730521444,1.2113086989799193,-8.928792609336323,-1.2430687156440554,-0.920942047208272,9.747213208181693,-0.0007818201001442379,-0.0007607030478789238,-0.002181661564992912,20.993234459047464,6.3865493967761715,-69.75
1773078043.910593,-0.001284812730521444,1.2113086989799193,-8.928792609336323,-1.2407220955409772,-0.9218373972207049,9.74814542117542,-0.0007818201001442379,-0.0007607030478789238,-0.003272492347489368,20.993234459047464,6.3865493967761715,-69.75
1773078043.9250808,-0.001284812730521444,1.2113086989799193,-8.928792609336323,-1.239160446075843,-0.9224332426522641,9.755456021923884,0.0007607030478789238,-0.0007818201001442379,0.0,21.262004411508027,6.6480598414133745,-69.75
1773078043.9557776,-0.001284812730521444,1.2113086989799193,-8.928792609336323,-1.2381211858015637,-0.9228297711309371,9.753630921642586,0.0023032261959020856,-0.000802937152409552,0.0,21.262004411508027,6.6480598414133745,-69.75
1773078044.0066557,-0.001284812730521444,1.2113086989799193,-8.928792609336323,-1.2381211858015637,-0.9228297711309371,9.753630921642586,0.0023032261959020856,-0.000802937152409552,0.0,21.262004411508027,6.6480598414133745,-69.75
1773078044.0536451,-0.001284812730521444,1.2113086989799193,-8.928792609336323,-1.2373648127260373,-0.9183633972986642,9.759106561207727,-0.0015636402002884757,-0.0015214060957578475,0.001090830782496456,21.262004411508027,6.6480598414133745,-69.5
1773078044.163852,-0.001284812730521444,1.2113086989799193,-8.928792609336323,-1.2368614548935153,-0.9153910754059514,9.756060314756787,0.0007607030478789238,-0.0007818201001442379,0.001090830782496456,21.262004411508027,6.6480598414133745,-69.5
1773078044.236852,-0.001284812730521444,1.2113086989799193,-8.928792609336323,-1.2365264758788475,-0.913413028389362,9.760723295187129,-0.0007607030478789238,0.0007818201001442379,-0.002181661564992912,21.262004411508027,6.6480598414133745,-70.1875
1773078044.3004334,-0.001284812730521444,1.2113086989799193,-8.928792609336323,-1.2387010591253507,-0.9144294112625674,9.763826456574616,-0.0015636402002884757,-0.0015214060957578475,0.001090830782496456,21.262004411508027,6.6480598414133745,-70.1875
1773078044.3487551,-0.001284812730521444,1.2113086989799193,-8.928792609336323,-1.2436166494227108,-0.9257668784300134,9.770611001305246,-0.0023243432481673994,-0.0007395859956136097,-0.001090830782496456,21.262004411508027,6.6480598414133745,-71.0
1773078044.411845,-0.001284812730521444,1.2113086989799193,-8.928792609336323,-1.2458817554274593,-0.9297137706349028,9.77040661454331,-0.0023243432481673994,-0.0007395859956136097,0.001090830782496456,20.993234459047464,6.3865493967761715,-70.5625
1773078044.429004,-0.001284812730521444,1.2113086989799193,-8.928792609336323,-1.2458817554274593,-0.9297137706349028,9.77040661454331,-0.0023243432481673994,-0.0007395859956136097,0.001090830782496456,20.993234459047464,6.3865493967761715,-70.5625
1773078044.4537764,-0.001284812730521444,1.2113086989799193,-8.928792609336323,-1.2473891581707273,-0.9323403833075818,9.77361570914371,-0.0023243432481673994,-0.0007395859956136097,0.001090830782496456,20.993234459047464,6.3865493967761715,-70.5625
1773078044.4802837,-0.001284812730521444,1.2113086989799193,-8.928792609336323,-1.2459300528464847,-0.9270253545282345,9.772406214045022,-0.0015636402002884757,-0.0015214060957578475,0.0,19.976258738958137,6.3562734203461275,-68.5625
1773078044.5113716,-0.001284812730521444,1.2113086989799193,-8.928792609336323,-1.2459300528464847,-0.9270253545282345,9.772406214045022,-0.0015636402002884757,-0.0015214060957578475,0.0,19.976258738958137,6.3562734203461275,-68.5625
1773078044.532202,-0.001284812730521444,1.2113086989799193,-8.928792609336323,-1.2449590345524757,-0.9234882622483407,9.76825619686047,-0.0015636402002884757,-0.0015214060957578475,0.0,19.976258738958137,6.3562734203461275,-68.5625
1773078044.564994,-0.001284812730521444,1.2113086989799193,-8.928792609336323,-1.2419800816582853,-0.9235318748867851,9.765494406782881,0.0007607030478789238,-0.0007818201001442379,0.0,21.24869531383187,5.675879113400807,-69.375
1773078044.5878139,-0.001284812730521444,1.2113086989799193,-8.928792609336323,-1.2423951298230897,-0.9258936496769972,9.763656466337462,-0.0007607030478789238,0.0007818201001442379,-0.001090830782496456,21.24869531383187,5.675879113400807,-69.375
1773078044.615607,-0.001284812730521444,1.2113086989799193,-8.928792609336323,-1.2423951298230897,-0.9258936496769972,9.763656466337462,-0.0007607030478789238,0.0007818201001442379,-0.001090830782496456,21.24869531383187,5.675879113400807,-69.375
1773078044.6356995,-0.001284812730521444,1.2113086989799193,-8.928792609336323,-1.2423951298230897,-0.9258936496769972,9.763656466337462,-0.0007607030478789238,0.0007818201001442379,-0.001090830782496456,21.24869531383187,5.675879113400807,-69.375
1773078044.6633806,-0.001284812730521444,1.2113086989799193,-8.928792609336323,-1.2426713397403755,-0.9274653844171303,9.762433337502175,-0.0015425231480231617,2.111705226531408e-05,0.0,20.78256859633982,7.140804754257737,-69.75
1773078044.7164636,-0.001284812730521444,1.2113086989799193,-8.928792609336323,-1.2469705037841674,-0.9330926097952525,9.754387441860882,0.0007607030478789238,-0.0007818201001442379,-0.002181661564992912,20.77530908851646,6.6105243571599726,-69.75
1773078044.7414587,-0.001284812730521444,1.2113086989799193,-8.928792609336323,-1.2469705037841674,-0.9330926097952525,9.754387441860882,0.0007607030478789238,-0.0007818201001442379,-0.002181661564992912,20.77530908851646,6.6105243571599726,-69.75
1773078044.7876966,-0.001284812730521444,1.2113086989799193,-8.928792609336323,-1.2481137080400004,-0.9345889630246881,9.74957468184016,0.000802937152409552,0.0023032261959020856,-0.001090830782496456,20.77530908851646,6.6105243571599726,-69.75
1773078044.832375,-0.001284812730521444,1.2113086989799193,-8.928792609336323,-1.246476989663025,-0.933252018317004,9.746371843808422,-0.0015214060957578475,0.0015636402002884757,-0.001090830782496456,20.993234459047464,6.3865493967761715,-69.75
1773078044.857502,-0.001284812730521444,1.2113086989799193,-8.928792609336323,-1.246476989663025,-0.933252018317004,9.746371843808422,-0.0015214060957578475,0.0015636402002884757,-0.001090830782496456,20.993234459047464,6.3865493967761715,-69.75
1773078044.9040086,-0.001284812730521444,1.2113086989799193,-8.928792609336323,-1.24538777186649,-0.9323622965486912,9.747585502583664,2.1117052265314135e-05,0.0015425231480231617,-0.001090830782496456,20.993234459047464,6.3865493967761715,-69.75
1773078044.9583552,-0.001284812730521444,1.2113086989799193,-8.928792609336323,-1.2446629095902562,-0.9317701966507224,9.748393178941132,2.1117052265314135e-05,0.0015425231480231617,0.0,21.47267027421567,5.89380448393181,-69.0
1773078044.985146,-0.001284812730521444,1.2113086989799193,-8.928792609336323,-1.2441805218426647,-0.9313761607828135,9.748930678534691,0.0,0.0,0.0,21.47267027421567,5.89380448393181,-69.0
1773078045.0341756,-0.001284812730521444,1.2113086989799193,-8.928792609336323,-1.2441805218426647,-0.9313761607828135,9.748930678534691,0.0,0.0,0.0,21.47267027421567,5.89380448393181,-69.0
1773078045.0713444,-0.001284812730521444,1.2113086989799193,-8.928792609336323,-1.2438594981852669,-0.9311139343143892,9.745943266802621,0.0,0.0,0.001090830782496456,20.769259498663665,6.168624026245169,-69.375
1773078045.104254,-0.001284812730521444,1.2113086989799193,-8.928792609336323,-1.2436458605273377,-0.9309394255289143,9.743955177666503,0.0007818201001442379,0.0007607030478789238,-0.001090830782496456,20.769259498663665,6.168624026245169,-69.375
1773078045.1741285,-0.001284812730521444,1.2113086989799193,-8.928792609336323,-1.2436458605273377,-0.9309394255289143,9.743955177666503,0.0007818201001442379,0.0007607030478789238,-0.001090830782496456,20.769259498663665,6.168624026245169,-69.375
1773078045.2158852,-0.001284812730521444,1.2113086989799193,-8.928792609336323,-1.243503687052475,-0.9308232918815716,9.74263212655483,0.0015636402002884757,0.0015214060957578475,-0.001090830782496456,20.77530908851646,6.6105243571599726,-69.75
1773078045.2561257,-0.001284812730521444,1.2113086989799193,-8.928792609336323,-1.2386140561155274,-0.9260805041035378,9.751786985941417,0.0023243432481673994,0.0007395859956136097,0.001090830782496456,20.77530908851646,6.6105243571599726,-69.75
1773078045.3680203,-0.001284812730521444,1.2113086989799193,-8.928792609336323,-1.2316421444030625,-0.9224192826871965,9.745220165900026,-0.0015425231480231617,2.111705226531408e-05,-0.001090830782496456,21.553790832575274,5.362314168863486,-70.1875
1773078045.404726,-0.001284812730521444,1.2113086989799193,-8.928792609336323,-1.2316421444030625,-0.9224192826871965,9.745220165900026,-0.0015425231480231617,2.111705226531408e-05,-0.001090830782496456,21.553790832575274,5.362314168863486,-70.1875
1773078045.4304948,-0.001284812730521444,1.2113086989799193,-8.928792609336323,-1.233117840023261,-0.9228204809301277,9.740128850386075,0.0007818201001442379,0.0007607030478789238,0.0,21.530774363968586,6.909570286050577,-70.1875
1773078045.4540126,-0.001284812730521444,1.2113086989799193,-8.928792609336323,-1.2340998989739027,-0.9230874738791204,9.74008574849258,-0.0015214060957578475,0.0015636402002884757,0.001090830782496456,21.530774363968586,6.909570286050577,-70.1875
1773078045.5183132,-0.001284812730521444,1.2113086989799193,-8.928792609336323,-1.2347534482352376,-0.9232651547041684,9.73671195295662,0.0007607030478789238,-0.0007818201001442379,0.0,21.741440226676232,6.1553149285690125,-69.75
1773078045.5708792,-0.001284812730521444,1.2113086989799193,-8.928792609336323,-1.2347534482352376,-0.9232651547041684,9.73671195295662,0.0007607030478789238,-0.0007818201001442379,0.0,21.741440226676232,6.1553149285690125,-69.75
1773078045.6032867,-0.001284812730521444,1.2113086989799193,-8.928792609336323,-1.2351883779680324,-0.9233833993084128,9.737811841422523,0.0023454603004327136,0.0022821091436367714,0.001090830782496456,21.741440226676232,6.1553149285690125,-69.75
1773078045.629125,-0.001284812730521444,1.2113086989799193,-8.928792609336323,-1.2354778188467237,-0.9234620897716588,9.735198693202703,0.0023243432481673994,0.0007395859956136097,0.001090830782496456,21.24869531383187,5.675879113400807,-70.1875
1773078045.7057087,-0.001284812730521444,1.2113086989799193,-8.928792609336323,-1.2354778188467237,-0.9234620897716588,9.735198693202703,0.0023243432481673994,0.0007395859956136097,0.001090830782496456,21.24869531383187,5.675879113400807,-70.1875
1773078045.7485218,-0.001284812730521444,1.2113086989799193,-8.928792609336323,-1.2380679465570303,-0.9258472084624315,9.73680478396051,-0.0015425231480231617,2.111705226531408e-05,-0.002181661564992912,21.24869531383187,5.675879113400807,-70.1875
1773078045.8245661,-0.001284812730521444,1.2113086989799193,-8.928792609336323,-1.2349966315370091,-0.9227689761745941,9.734528507711302,0.0015636402002884757,0.0015214060957578475,0.001090830782496456,21.56709993025143,6.334494896876054,-68.25
1773078045.862284,-0.001284812730521444,1.2113086989799193,-8.928792609336323,-1.2352854567665343,-0.918322938934342,9.736358783002444,0.0023243432481673994,0.0007395859956136097,-0.001090830782496456,21.56709993025143,6.334494896876054,-68.25
1773078045.9009213,-0.001284812730521444,1.2113086989799193,-8.928792609336323,-1.2354776667303942,-0.9153641508164445,9.737576810763185,-0.0023243432481673994,-0.0007395859956136097,-0.002181661564992912,20.51379864387926,6.879294309620534,-69.75
1773078045.9313686,-0.001284812730521444,1.2113086989799193,-8.928792609336323,-1.2356703372865083,-0.9181253694811291,9.745077618046336,-0.0015636402002884757,-0.0015214060957578475,0.0,20.51379864387926,6.879294309620534,-69.75
1773078045.9463112,-0.001284812730521444,1.2113086989799193,-8.928792609336323,-1.238196065428135,-0.9222956807241557,9.750069321503766,-0.0031061633483116377,-0.0015002890434925337,0.0,20.51379864387926,6.879294309620534,-69.75
1773078045.985396,-0.001284812730521444,1.2113086989799193,-8.928792609336323,-1.2398769092921558,-0.925070976270961,9.753391244393704,2.1117052265314135e-05,0.0015425231480231617,0.002181661564992912,20.521058151702615,7.409574706718298,-70.1875
1773078046.0402918,-0.001284812730521444,1.2113086989799193,-8.928792609336323,-1.2386627410408928,-0.9293154124940813,9.752256835261328,0.0007607030478789238,-0.0007818201001442379,-0.001090830782496456,20.521058151702615,7.409574706718298,-70.1875
1773078046.0760715,-0.001284812730521444,1.2113086989799193,-8.928792609336323,-1.2386627410408928,-0.9293154124940813,9.752256835261328,0.0007607030478789238,-0.0007818201001442379,-0.001090830782496456,20.521058151702615,7.409574706718298,-70.1875
1773078046.1088421,-0.001284812730521444,1.2113086989799193,-8.928792609336323,-1.23731700040488,-0.9340197937002908,9.748773362304327,0.0007607030478789238,-0.0007818201001442379,-0.001090830782496456,21.777765792959073,5.580239539394489,-68.5625
1773078046.1308832,-0.001284812730521444,1.2113086989799193,-8.928792609336323,-1.2368943933001753,-0.930540491423143,9.759219021437929,0.0015636402002884757,0.0015214060957578475,-0.002181661564992912,21.777765792959073,5.580239539394489,-68.5625
1773078046.149617,-0.001284812730521444,1.2113086989799193,-8.928792609336323,-1.2368943933001753,-0.930540491423143,9.759219021437929,0.0015636402002884757,0.0015214060957578475,-0.002181661564992912,21.777765792959073,5.580239539394489,-68.5625
1773078046.2207463,-0.001284812730521444,1.2113086989799193,-8.928792609336323,-1.2366131529928248,-0.9282250546240542,9.766170490905683,0.0038668663961905613,0.0007184689433482957,0.0,20.028313238858253,6.930138891550093,-69.5
1773078046.3134882,-0.001284812730521444,1.2113086989799193,-8.928792609336323,-1.2340284826711392,-0.9243514062328719,9.770796616183471,0.0023243432481673994,0.0007395859956136097,0.0,20.028313238858253,6.930138891550093,-69.5
1773078046.3563714,-0.001284812730521444,1.2113086989799193,-8.928792609336323,-1.2347059214835208,-0.9241062875665405,9.770530139171314,0.0015636402002884757,0.0015214060957578475,0.0,21.47267027421567,5.89380448393181,-69.5
1773078046.4276793,-0.001284812730521444,1.2113086989799193,-8.928792609336323,-1.2351567494456734,-0.9239431638322518,9.770352801696466,0.0015214060957578475,-0.0015636402002884757,-0.001090830782496456,21.47267027421567,5.89380448393181,-69.5
1773078046.4571824,-85.04340081342791,4.467455084504399,6.421847222270515,-1.2354567704184076,-0.9238346068092943,9.770234785587945,-0.0007607030478789238,0.0007818201001442379,0.002181661564992912,20.993234459047464,6.3865493967761715,-69.75
1773078046.496704,-0.001284812730521444,1.2113086989799193,-8.928792609336323,-1.2356564310243086,-0.9237623633231774,9.770156247186051,0.0015002890434925335,-0.0031061633483116372,0.001090830782496456,20.993234459047464,6.3865493967761715,-69.75
1773078046.5144565,-0.001284812730521444,1.2113086989799193,-8.928792609336323,-1.2356564310243086,-0.9237623633231774,9.770156247186051,-0.0015214060957578475,0.0015636402002884757,-0.001090830782496456,21.47267027421567,5.89380448393181,-69.5
1773078046.5310576,-0.001284812730521444,1.2113086989799193,-8.928792609336323,-1.2381220539936928,-0.9213167780513752,9.770103980756922,0.0,0.0,-0.002181661564992912,21.47267027421567,5.89380448393181,-69.5
1773078046.6106634,-0.001284812730521444,1.2113086989799193,-8.928792609336323,-1.23509739640398,-0.9244842844495764,9.76672408632487,-0.0007607030478789238,0.0007818201001442379,0.001090830782496456,21.741440226676232,6.1553149285690125,-69.75
1773078046.7127712,-0.001284812730521444,1.2113086989799193,-8.928792609336323,-1.233084520565665,-0.9265922245742144,9.764474804336235,0.0007607030478789238,-0.0007818201001442379,-0.001090830782496456,21.741440226676232,6.1553149285690125,-69.75
1773078046.7704923,-0.001284812730521444,1.2113086989799193,-8.928792609336323,-1.2355837801303076,-0.9288638329953158,9.753065422790737,0.0023243432481673994,0.0007395859956136097,0.0,21.05133854880038,7.40231519889494,-69.5
1773078046.8177283,-0.001284812730521444,1.2113086989799193,-8.928792609336323,-1.2355837801303076,-0.9288638329953158,9.753065422790737,0.0023243432481673994,0.0007395859956136097,0.0,21.05133854880038,7.40231519889494,-69.5
1773078046.8674738,-0.001284812730521444,1.2113086989799193,-8.928792609336323,-1.2421713263250613,-0.927429269361813,9.74578635410788,0.0023243432481673994,0.0007395859956136097,0.0,20.551334128132662,6.39259898662897,-70.5625
1773078046.9285111,-0.001284812730521444,1.2113086989799193,-8.928792609336323,-1.2378568988794612,-0.9332823382409873,9.750540977435621,0.0007818201001442379,0.0007607030478789238,0.002181661564992912,20.993234459047464,6.3865493967761715,-78.1875
1773078046.9601393,-0.001284812730521444,1.2113086989799193,-8.928792609336323,-1.2419839488092643,-0.9299849660806024,9.753705126147612,0.0007818201001442379,0.0007607030478789238,0.0,20.993234459047464,6.3865493967761715,-78.1875
1773078046.9885063,-0.001284812730521444,1.2113086989799193,-8.928792609336323,-1.2419839488092643,-0.9299849660806024,9.753705126147612,0.0007818201001442379,0.0007607030478789238,0.0,20.993234459047464,6.3865493967761715,-78.1875
1773078047.0171556,-0.001284812730521444,1.2113086989799193,-8.928792609336323,-1.2447304544353799,-0.9277906017419267,9.755810831769583,2.1117052265314135e-05,0.0015425231480231617,0.0,20.769259498663665,6.168624026245169,-70.5625
1773078047.0376348,-0.001284812730521444,1.2113086989799193,-8.928792609336323,-1.2441607152102778,-0.9239975257206813,9.760557267046051,-0.0015425231480231617,2.111705226531408e-05,-0.001090830782496456,20.769259498663665,6.168624026245169,-70.5625
1773078047.0729482,-0.001284812730521444,1.2113086989799193,-8.928792609336323,-1.2437815601203766,-0.921473275999978,9.760370854994067,-0.0015636402002884757,-0.0015214060957578475,0.001090830782496456,20.769259498663665,6.168624026245169,-70.5625
1773078047.1153286,-0.001284812730521444,1.2113086989799193,-8.928792609336323,-1.2437815601203766,-0.921473275999978,9.760370854994067,-0.0015636402002884757,-0.0015214060957578475,0.001090830782496456,20.769259498663665,6.168624026245169,-70.5625
1773078047.1652913,-0.001284812730521444,1.2113086989799193,-8.928792609336323,-1.243529236643487,-0.9197934160085669,9.753556576441191,-0.0015425231480231617,2.111705226531408e-05,-0.002181661564992912,19.976258738958137,6.3562734203461275,-69.5
1773078047.1889715,-0.001284812730521444,1.2113086989799193,-8.928792609336323,-1.2434260751605464,-0.9234057470548649,9.749021750184731,-0.0022821091436367714,0.0023454603004327136,0.0,19.976258738958137,6.3562734203461275,-69.5
1773078047.2536368,-0.001284812730521444,1.2113086989799193,-8.928792609336323,-1.2456901734125514,-0.9234122049749907,9.746003873968386,-0.0007818201001442379,-0.0007607030478789238,0.001090830782496456,21.24869531383187,5.675879113400807,-69.75
1773078047.3248606,-0.001284812730521444,1.2113086989799193,-8.928792609336323,-1.2448641544411134,-0.9258140106874986,9.754030846180251,-0.0007607030478789238,0.0007818201001442379,0.0,21.24869531383187,5.675879113400807,-69.75
1773078047.3821595,-0.001284812730521444,1.2113086989799193,-8.928792609336323,-1.246711956081662,-0.9297451366257574,9.759372706520093,-0.0030850462960463234,4.223410453062816e-05,0.002181661564992912,21.24869531383187,5.675879113400807,-69.0
1773078047.4292533,-0.001284812730521444,1.2113086989799193,-8.928792609336323,-1.2479416474321503,-0.9323612570241145,9.75958254319645,-0.0007607030478789238,0.0007818201001442379,-0.001090830782496456,21.24869531383187,5.675879113400807,-69.0
1773078047.449368,-0.001284812730521444,1.2113086989799193,-8.928792609336323,-1.2479416474321503,-0.9323612570241145,9.75958254319645,-0.0007607030478789238,0.0007818201001442379,-0.001090830782496456,21.24869531383187,5.675879113400807,-69.0
1773078047.4815986,-0.001284812730521444,1.2113086989799193,-8.928792609336323,-1.2392347181064232,-0.9295015107645078,9.759722187160536,0.0,0.0,-0.001090830782496456,21.044079040977024,6.8720348017971755,-69.75
1773078047.551101,-0.001284812730521444,1.2113086989799193,-8.928792609336323,-1.2357731049694378,-0.9252008735353945,9.75981511865871,-0.0023243432481673994,-0.0007395859956136097,0.003272492347489368,21.044079040977024,6.8720348017971755,-69.75
1773078047.6054466,-0.001284812730521444,1.2113086989799193,-8.928792609336323,-1.233534197067818,-0.9270691066060017,9.76322207523995,0.0015425231480231617,-2.111705226531408e-05,0.001090830782496456,21.24869531383187,5.675879113400807,-69.5
1773078047.6446288,-0.001284812730521444,1.2113086989799193,-8.928792609336323,-1.2367097310025552,-0.9235173787673521,9.765489366786568,0.0,0.0,0.001090830782496456,21.24869531383187,5.675879113400807,-69.5
1773078047.6672015,-0.001284812730521444,1.2113086989799193,-8.928792609336323,-1.2367097310025552,-0.9235173787673521,9.765489366786568,0.0,0.0,0.001090830782496456,21.24869531383187,5.675879113400807,-69.5
1773078047.7123213,-0.001284812730521444,1.2113086989799193,-8.928792609336323,-1.2378318711283016,-0.9172480196767399,9.756859859230689,2.1117052265314135e-05,0.0015425231480231617,0.0,20.551334128132662,6.39259898662897,-69.75
1773078047.7475672,-0.001284812730521444,1.2113086989799193,-8.928792609336323,-1.2378318711283016,-0.9172480196767399,9.756859859230689,2.1117052265314135e-05,0.0015425231480231617,0.0,20.551334128132662,6.39259898662897,-69.75
1773078047.7887862,-0.001284812730521444,1.2113086989799193,-8.928792609336323,-1.2378318711283016,-0.9172480196767399,9.756859859230689,2.1117052265314135e-05,0.0015425231480231617,0.0,20.551334128132662,6.39259898662897,-69.75
1773078047.8099809,-0.001284812730521444,1.2113086989799193,-8.928792609336323,-1.2371722770428382,-0.9146488040581452,9.754565159688374,0.0007818201001442379,0.0007607030478789238,-0.001090830782496456,20.77530908851646,6.6105243571599726,-70.1875
1773078047.840916,-0.001284812730521444,1.2113086989799193,-8.928792609336323,-1.2367333245471108,-0.9129190550991113,9.753038062776438,0.0007818201001442379,0.0007607030478789238,-0.001090830782496456,20.77530908851646,6.6105243571599726,-70.1875
1773078047.884299,-0.001284812730521444,1.2113086989799193,-8.928792609336323,-1.2365059635369164,-0.9164981855947528,9.762057131962292,0.0007607030478789238,-0.0007818201001442379,0.001090830782496456,20.77530908851646,6.6105243571599726,-69.75
1773078047.9622297,-0.001284812730521444,1.2113086989799193,-8.928792609336323,-1.2363546573244208,-0.9188800569580947,9.768059221755875,2.1117052265314135e-05,0.0015425231480231617,0.002181661564992912,20.455694554126342,5.863528507501765,-68.5625
1773078048.0126832,-0.001284812730521444,1.2113086989799193,-8.928792609336323,-1.2363546573244208,-0.9188800569580947,9.768059221755875,2.1117052265314135e-05,0.0015425231480231617,0.002181661564992912,20.455694554126342,5.863528507501765,-68.5625
1773078048.070644,-0.001284812730521444,1.2113086989799193,-8.928792609336323,-1.2362539647302062,-0.9204651657431523,9.772053545465768,-0.0015425231480231617,2.111705226531408e-05,0.0,21.044079040977024,6.8720348017971755,-69.5
1773078048.1288946,-0.001284812730521444,1.2113086989799193,-8.928792609336323,-1.243314722077687,-0.9237880320270039,9.774711723275182,-0.0015425231480231617,2.111705226531408e-05,-0.001090830782496456,21.044079040977024,6.8720348017971755,-69.5
1773078048.177478,-0.001284812730521444,1.2113086989799193,-8.928792609336323,-1.243314722077687,-0.9237880320270039,9.774711723275182,-0.0015425231480231617,2.111705226531408e-05,-0.001090830782496456,21.044079040977024,6.8720348017971755,-69.5
1773078048.2771127,-0.001284812730521444,1.2113086989799193,-8.928792609336323,-1.2549179316540104,-0.9155997615383009,9.768741594537493,-2.1117052265314135e-05,-0.0015425231480231617,-0.002181661564992912,21.24869531383187,5.675879113400807,-69.5
1773078048.3308918,-0.001284812730521444,1.2113086989799193,-8.928792609336323,-1.2533378755365032,-0.9182174088122889,9.759127210100054,-0.0015636402002884757,-0.0015214060957578475,0.0,21.24869531383187,5.675879113400807,-69.5
1773078048.367446,-0.001284812730521444,1.2113086989799193,-8.928792609336323,-1.2533378755365032,-0.9182174088122889,9.759127210100054,-0.0015636402002884757,-0.0015214060957578475,0.0,21.24869531383187,5.675879113400807,-69.5
1773078048.401076,-0.001284812730521444,1.2113086989799193,-8.928792609336323,-1.2522863658406855,-0.919959423832092,9.75272894465665,-0.0015636402002884757,-0.0015214060957578475,0.0,22.046535745419636,5.841749984031692,-67.75
1773078048.4228284,-0.001284812730521444,1.2113086989799193,-8.928792609336323,-1.2492538468177392,-0.923516223406992,9.75181608218469,-0.0015425231480231617,2.111705226531408e-05,0.001090830782496456,22.046535745419636,5.841749984031692,-67.75
1773078048.4413674,-0.001284812730521444,1.2113086989799193,-8.928792609336323,-1.2492538468177392,-0.923516223406992,9.75181608218469,-0.0015425231480231617,2.111705226531408e-05,0.001090830782496456,22.046535745419636,5.841749984031692,-67.75
1773078048.520584,-0.001284812730521444,1.2113086989799193,-8.928792609336323,-1.2519659983887421,-0.9258184768197419,9.751208582406944,0.0023032261959020856,-0.000802937152409552,0.001090830782496456,21.298329977790868,6.072984452238851,-69.75
1773078048.6365795,-0.001284812730521444,1.2113086989799193,-8.928792609336323,-1.2519659983887421,-0.9258184768197419,9.751208582406944,0.0023032261959020856,-0.000802937152409552,0.001090830782496456,21.298329977790868,6.072984452238851,-69.75
1773078048.6653397,-0.001284812730521444,1.2113086989799193,-8.928792609336323,-1.2442456297796018,-0.9227498555873376,9.744114074676432,0.000802937152409552,0.0023032261959020856,0.0,20.551334128132662,6.39259898662897,-69.75
1773078048.7235086,-0.001284812730521444,1.2113086989799193,-8.928792609336323,-1.243902826789995,-0.9253732245689429,9.73939275903262,0.0007607030478789238,-0.0007818201001442379,-0.001090830782496456,20.551334128132662,6.39259898662897,-69.75
1773078048.756703,-0.001284812730521444,1.2113086989799193,-8.928792609336323,-1.2388796791521641,-0.9224535451882244,9.742940999626855,0.0015636402002884757,0.0015214060957578475,-0.002181661564992912,21.298329977790868,6.072984452238851,-70.1875
1773078048.7930853,-0.001284812730521444,1.2113086989799193,-8.928792609336323,-1.2403318465890314,-0.9251760333083371,9.745302314105873,0.0015425231480231617,-2.111705226531408e-05,-0.002181661564992912,21.298329977790868,6.072984452238851,-70.1875
1773078048.8408275,-0.001284812730521444,1.2113086989799193,-8.928792609336323,-1.2403318465890314,-0.9251760333083371,9.745302314105873,0.0015425231480231617,-2.111705226531408e-05,-0.002181661564992912,21.298329977790868,6.072984452238851,-70.1875
1773078048.9140072,-0.001284812730521444,1.2113086989799193,-8.928792609336323,-1.2402811052144547,-0.9219108628244036,9.747919510565684,-0.0023243432481673994,-0.0007395859956136097,0.0,21.56709993025143,6.334494896876054,-69.5
1773078048.9746692,-0.001284812730521444,1.2113086989799193,-8.928792609336323,-1.2402811052144547,-0.9219108628244036,9.747919510565684,-0.0023243432481673994,-0.0007395859956136097,0.0,21.56709993025143,6.334494896876054,-69.5
1773078049.0142696,-0.001284812730521444,1.2113086989799193,-8.928792609336323,-1.2411997230062395,-0.920084625152057,9.748615457522051,-2.1117052265314135e-05,-0.0015425231480231617,0.0,20.993234459047464,6.3865493967761715,-71.0
1773078049.0751956,-0.001284812730521444,1.2113086989799193,-8.928792609336323,-1.2411997230062395,-0.920084625152057,9.748615457522051,-2.1117052265314135e-05,-0.0015425231480231617,0.0,20.993234459047464,6.3865493967761715,-71.0
1773078049.116342,-0.001284812730521444,1.2113086989799193,-8.928792609336323,-1.23474804271321,-0.9213315493926173,9.749078602447279,0.0023454603004327136,0.0022821091436367714,-0.002181661564992912,20.993234459047464,6.3865493967761715,-71.0
1773078049.1491463,-37.57023664771911,-19.050679361976705,127.60498116888947,-1.232852029586994,-0.9244941146121662,9.74938682022135,0.0007818201001442379,0.0007607030478789238,0.001090830782496456,21.262004411508027,6.6480598414133745,-69.75
1773078049.1813693,-0.001284812730521444,1.2113086989799193,-8.928792609336323,-1.2315902540313517,-0.9265987664376079,9.749591935706976,-0.0007607030478789238,0.0007818201001442379,-0.001090830782496456,21.262004411508027,6.6480598414133745,-69.75
1773078049.2034302,-0.001284812730521444,1.2113086989799193,-8.928792609336323,-1.2315902540313517,-0.9265987664376079,9.749591935706976,-0.0007607030478789238,0.0007818201001442379,-0.001090830782496456,21.262004411508027,6.6480598414133745,-69.75
1773078049.236736,-0.001284812730521444,1.2113086989799193,-8.928792609336323,-1.2354808155993446,-0.9279346317446463,9.749728437771369,0.0023454603004327136,0.0022821091436367714,-0.001090830782496456,21.553790832575274,5.362314168863486,-70.1875
1773078049.3343275,-0.001284812730521444,1.2113086989799193,-8.928792609336323,-1.2397929748025787,-0.9294152570418829,9.75322484348161,0.0031272804005769515,0.003042812191515695,-0.001090830782496456,20.551334128132662,6.39259898662897,-69.75
1773078049.3660827,-0.001284812730521444,1.2113086989799193,-8.928792609336323,-1.2409396346422013,-0.9298089747795298,9.755491209020468,-0.0007818201001442379,-0.0007607030478789238,0.001090830782496456,20.551334128132662,6.39259898662897,-69.75
1773078049.451616,-0.001284812730521444,1.2113086989799193,-8.928792609336323,-1.2409396346422013,-0.9298089747795298,9.755491209020468,-0.0007818201001442379,-0.0007607030478789238,0.001090830782496456,20.551334128132662,6.39259898662897,-69.75
1773078049.4970913,-0.001284812730521444,1.2113086989799193,-8.928792609336323,-1.2393052159176368,-0.927738238469306,9.756999449969616,-0.0007818201001442379,-0.0007607030478789238,0.001090830782496456,21.47267027421567,5.89380448393181,-69.75
1773078049.5429008,-0.001284812730521444,1.2113086989799193,-8.928792609336323,-1.2382175285140922,-0.9263601865864923,9.758003167473118,-0.0023243432481673994,-0.0007395859956136097,0.0,21.47267027421567,5.89380448393181,-69.75
1773078049.5884988,-0.001284812730521444,1.2113086989799193,-8.928792609336323,-1.2374936846972977,-0.9254431084523279,9.751980906844803,0.00158475725255379,0.0030639292437810092,-0.001090830782496456,21.312848993437584,7.1335452464343785,-69.75
1773078049.6399672,-0.001284812730521444,1.2113086989799193,-8.928792609336323,-1.2394094827618904,-0.9271655542649883,9.747973159669717,-0.0007607030478789238,0.0007818201001442379,0.0,21.312848993437584,7.1335452464343785,-69.75
1773078049.6902986,-0.001284812730521444,1.2113086989799193,-8.928792609336323,-1.2406844249730102,-0.9283118227123331,9.745306048694168,-0.0023243432481673994,-0.0007395859956136097,0.0,21.741440226676232,6.1553149285690125,-70.5625
1773078049.7433088,-0.001284812730521444,1.2113086989799193,-8.928792609336323,-1.2439303928112766,-0.931407402625896,9.743531116133521,-0.0007818201001442379,-0.0007607030478789238,0.001090830782496456,21.741440226676232,6.1553149285690125,-70.5625
1773078049.799201,-0.001284812730521444,1.2113086989799193,-8.928792609336323,-1.2439303928112766,-0.931407402625896,9.743531116133521,-0.0007818201001442379,-0.0007607030478789238,0.001090830782496456,21.741440226676232,6.1553149285690125,-70.5625
1773078049.8353596,-0.001284812730521444,1.2113086989799193,-8.928792609336323,-1.2412955320701984,-0.9288019743454538,9.749040141756346,-0.0015214060957578475,0.0015636402002884757,-0.001090830782496456,21.56709993025143,6.334494896876054,-69.75
1773078049.862238,-0.001284812730521444,1.2113086989799193,-8.928792609336323,-1.2412955320701984,-0.9288019743454538,9.749040141756346,-0.0015214060957578475,0.0015636402002884757,-0.001090830782496456,21.56709993025143,6.334494896876054,-69.75
1773078049.8979473,-0.001284812730521444,1.2113086989799193,-8.928792609336323,-1.244337077757942,-0.9317335930623856,9.752706336768487,0.0007395859956136096,-0.0023243432481673994,0.0,21.56709993025143,6.334494896876054,-69.75
1773078049.9218836,-0.001284812730521444,1.2113086989799193,-8.928792609336323,-1.2391686683204317,-0.9266862993706391,9.755146148594985,-0.0015425231480231617,2.111705226531408e-05,0.002181661564992912,20.77530908851646,6.6105243571599726,-69.0625
1773078049.9418714,-0.001284812730521444,1.2113086989799193,-8.928792609336323,-1.240524165652293,-0.9279928839337717,9.763460039525674,-0.0007818201001442379,-0.0007607030478789238,0.001090830782496456,20.77530908851646,6.6105243571599726,-69.0625
1773078050.0092306,-0.001284812730521444,1.2113086989799193,-8.928792609336323,-1.2366312179071413,-0.9241968992320054,9.762302617653162,0.0015636402002884757,0.0015214060957578475,-0.001090830782496456,21.262004411508027,6.6480598414133745,-69.0625
1773078050.0582144,-0.001284812730521444,1.2113086989799193,-8.928792609336323,-1.236502769680914,-0.9287337239887367,9.758187254618935,0.0007607030478789238,-0.0007818201001442379,-0.001090830782496456,21.262004411508027,6.6480598414133745,-69.0625
1773078050.1207926,-0.001284812730521444,1.2113086989799193,-8.928792609336323,-1.236502769680914,-0.9287337239887367,9.758187254618935,0.0007607030478789238,-0.0007818201001442379,-0.001090830782496456,21.262004411508027,6.6480598414133745,-69.0625
1773078050.1616306,-0.001284812730521444,1.2113086989799193,-8.928792609336323,-1.2340197807824165,-0.9294201791181755,9.755448526491275,-0.000802937152409552,-0.0023032261959020856,0.0,20.551334128132662,6.39259898662897,-69.5
1773078050.1791677,-0.001284812730521444,1.2113086989799193,-8.928792609336323,-1.2340197807824165,-0.9294201791181755,9.755448526491275,-0.000802937152409552,-0.0023032261959020856,0.0,20.551334128132662,6.39259898662897,-69.5
1773078050.2293622,-0.028754310826225694,1.1962846855315017,-8.93485010758846,-1.2323673794072698,-0.9298770073386108,9.760316156930553,-0.028695056130418346,-0.011178258143265403,-0.00545415391248228,20.551334128132662,6.39259898662897,-69.5
1773078050.2693524,-0.04384180417768797,1.1886319614462724,-8.937639258160292,-1.2312677247506423,-0.930181021416205,9.763555510612898,-0.010861013192958074,-0.004479750078212286,0.0,21.07435501740707,5.855059081707848,-68.5625
1773078050.3178895,-0.05940288900410203,1.1874055623919229,-8.937721978168792,-1.3038873114791565,-0.931744735870925,9.765711264302547,-2.1117052265314135e-05,-0.0015425231480231617,0.0,21.07435501740707,5.855059081707848,-68.5625
1773078050.3565152,-0.09667539668507558,1.1817768442789987,-8.931735239680052,-1.2705685479051065,-1.016698151730846,9.803942123082175,0.008452201735729418,-0.0024299285094939705,0.002181661564992912,20.935130369294548,5.370783594657403,-70.1875
1773078050.433806,-0.05317014455512628,1.1916022041759011,-8.928310917782845,-1.1981123710989603,-1.0289761877023405,9.769172321801594,-0.010036958988283207,-0.0006340007342870395,-0.011999138607461015,20.521058151702615,7.409574706718298,-69.5
1773078050.4734848,-0.05317014455512628,1.1916022041759011,-8.928310917782845,-1.1981123710989603,-1.0289761877023405,9.769172321801594,-0.010036958988283207,-0.0006340007342870395,-0.011999138607461015,20.521058151702615,7.409574706718298,-69.5
1773078050.5289402,-0.058373069624896336,1.1755709479989012,-8.927569743307462,-1.1498935948229982,-1.0371470834867216,9.802900306477927,0.007754849844646436,0.002979461034719753,-0.013089969389957472,20.521058151702615,7.409574706718298,-69.5
1773078050.561776,-0.031119139800682653,1.2284168948072023,-8.921320226530959,-1.199450825178309,-0.9586719419982008,9.82534590351375,0.011029949611080586,0.01681993526239758,0.006544984694978736,21.298329977790868,6.072984452238851,-70.1875
1773078050.5973027,-0.031119139800682653,1.2284168948072023,-8.921320226530959,-1.199450825178309,-0.9586719419982008,9.82534590351375,0.011029949611080586,0.01681993526239758,0.006544984694978736,21.298329977790868,6.072984452238851,-70.1875
1773078050.6269937,-0.02836677813004636,1.2755626342278832,-8.924087426917513,-1.2564056887772723,-0.9297751226274853,9.840283197607343,0.018700331246665768,0.013629303705024687,0.02181661564992912,21.298329977790868,6.072984452238851,-70.1875
1773078050.6694288,0.12520413286476126,1.3583773461047213,-8.945621499455843,-1.2348873690190798,-1.0627547441448153,9.836843353136842,0.006000667007642517,0.04388800003573151,0.15271630954950383,21.298329977790868,6.072984452238851,-70.1875
1773078050.7317631,1.1051459511264443,1.6495722296713875,-8.917616193072163,-1.2205671675953844,-1.151251196784893,9.834554175067305,0.06055962676594428,0.028484374774092828,0.46142142099600086,20.760790072869746,5.549963562964444,-68.25
1773078050.7727816,6.992065062087031,2.912621844467703,-8.71233515367484,-1.2375947549925383,-1.175579423443369,10.003630226391689,0.012614706863634377,0.01988386450617859,1.0602875205865552,21.83586988271199,6.596005341513257,-70.1875
1773078050.9055243,15.220366556015433,4.0604678000712155,-8.497612068806028,-1.33300012027878,-1.1599627429169987,10.012691130296849,-0.1856527994543328,0.0750537512811916,1.5086189721925987,21.588878453721502,7.925336088169347,-70.5625
1773078050.9687562,18.70249780408645,4.2942426838905705,-8.858996619203724,-1.317871052775732,-1.1350743304868633,9.918127789345716,-0.3277343546569138,0.12096898833439326,1.5893404500973363,21.588878453721502,7.925336088169347,-70.5625
1773078050.9961388,22.228309317586774,4.425415048268354,-9.266987649946586,-1.2599821805237141,-1.0813168669167739,9.878612724235705,-0.3239730735220498,0.11397484153762577,1.5784321422723717,22.09735230018314,9.553712763716042,-71.375
1773078051.039125,22.228309317586774,4.425415048268354,-9.266987649946586,-1.2599821805237141,-1.0813168669167739,9.878612724235705,-0.3239730735220498,0.11397484153762577,1.5784321422723717,22.09735230018314,9.553712763716042,-71.375
1773078051.097663,27.41222069556223,4.597748540510468,-9.694417455151758,-1.1882164550192718,-1.0365346560165016,9.852315889817193,-0.2893186061558643,0.053330746562620227,1.5293447570600314,22.09735230018314,9.553712763716042,-71.375
1773078051.1172414,27.41222069556223,4.597748540510468,-9.694417455151758,-1.1882164550192718,-1.0365346560165016,9.852315889817193,-0.2893186061558643,0.053330746562620227,1.5293447570600314,22.09735230018314,9.553712763716042,-71.375
1773078051.1461165,33.87204601284095,4.80507269588706,-9.854308287748186,-1.1404571663717473,-1.0067325949124442,9.83481564026656,-0.1521391420768019,-0.012573940258086603,1.4191708480278893,23.191762770388287,15.240312975855572,-73.0
1773078051.2058492,38.47421332111453,5.105419135886268,-9.699494016419179,-1.2209034723007786,-1.0634271425474036,9.762957408949463,-0.05496018375134273,-0.013904314550801383,1.3886275861179884,23.191762770388287,15.240312975855572,-73.0
1773078051.2326417,38.47421332111453,5.105419135886268,-9.699494016419179,-1.2209034723007786,-1.0634271425474036,9.762957408949463,-0.05496018375134273,-0.013904314550801383,1.3886275861179884,23.191762770388287,15.240312975855572,-73.0
1773078051.2709796,44.880357300444395,5.958978610637932,-9.549442125308335,-1.4886688262005137,-1.1616360351806068,9.753559662934858,-0.05327033040378997,0.053184883862073484,1.5129822953225844,24.32494666998345,17.302120556523153,-73.75
1773078051.3200843,49.16767756962427,6.701079787446728,-9.241719599220994,-1.580610465870425,-1.1836862498304555,9.872792937382606,-0.026244499734986677,0.05512912016946523,1.574068819142386,25.012600484752127,19.10483752849465,-75.75
1773078051.3546722,49.16767756962427,6.701079787446728,-9.241719599220994,-1.580610465870425,-1.1836862498304555,9.872792937382606,-0.026244499734986677,0.05512912016946523,1.574068819142386,25.012600484752127,19.10483752849465,-75.75
1773078051.3953454,52.70144969398795,7.171821792511538,-8.908699782094011,-1.5826359827127379,-1.1968047539638775,9.952141349604634,-0.031653400112872786,-0.0018808851505958024,1.5991579271398044,25.012600484752127,19.10483752849465,-75.75
1773078051.4657912,61.53621716906922,7.172051545418037,-8.043066225728477,-1.5384312888075156,-1.1612127016576383,9.827655911070625,-0.2767225705128572,-0.20989117922411463,1.5184364492350666,26.401245239131693,20.455974825786864,-76.0625
1773078051.537068,61.53621716906922,7.172051545418037,-8.043066225728477,-1.5384312888075156,-1.1612127016576383,9.827655911070625,-0.2767225705128572,-0.20989117922411463,1.5184364492350666,26.401245239131693,20.455974825786864,-76.0625
1773078051.5621843,68.17998058664703,5.139135012665211,-7.539910596421174,-1.4802434623467282,-1.109533575638961,9.734776907197748,-0.5060919877531609,-0.3980598428959855,1.2500920767409385,26.479917934384126,22.974201753015965,-77.25
1773078051.642091,73.84768838495458,4.234243343511749,-6.625147542297728,-1.0196834327212796,-0.9000830086058851,9.62626189715672,-0.14913709649083398,-0.18772422724164406,1.014472627721704,22.875665881245638,27.66436682339963,-77.6875
1773078051.6848712,73.84768838495458,4.234243343511749,-6.625147542297728,-1.0196834327212796,-0.9000830086058851,9.62626189715672,-0.14913709649083398,-0.18772422724164406,1.014472627721704,22.875665881245638,27.66436682339963,-77.6875
1773078051.7121487,76.1071767917589,4.045630186861893,-7.028070514673552,-1.3101716597558768,-0.942819192158671,9.597406328949267,-0.2630328506490023,0.11391197954715741,0.5759586531581288,22.875665881245638,27.66436682339963,-77.6875
1773078051.8107457,78.31650015357513,3.811235097125929,-8.05327676588103,-1.503488329881286,-0.9712596449185995,9.578203270645025,-0.1162382794606353,-0.03852182292870365,0.32070425005395803,22.047493418895723,34.96842642218476,-77.75
1773078051.8770084,79.6669779920417,3.5170780313770162,-7.381294109066984,-1.6522898332558482,-1.0798023436415065,9.50521183912402,0.08004422394439237,-0.23868888561789386,0.36324665057131983,22.047493418895723,34.96842642218476,-77.75
1773078051.902942,79.6669779920417,3.5170780313770162,-7.381294109066984,-1.6522898332558482,-1.0798023436415065,9.50521183912402,0.08004422394439237,-0.23868888561789386,0.36324665057131983,22.047493418895723,34.96842642218476,-77.75
1773078051.9291294,80.9268281501418,3.2060315436115996,-7.231283512681512,-1.7513155715299134,-1.15203629714021,9.456636856814505,-0.03978737856563965,-0.14525106970768858,0.3567016658763411,19.153911649132603,39.914052347352836,-78.0625
1773078051.9485605,80.9268281501418,3.2060315436115996,-7.231283512681512,-1.7513155715299134,-1.15203629714021,9.456636856814505,-0.03978737856563965,-0.14525106970768858,0.3567016658763411,19.153911649132603,39.914052347352836,-78.0625
1773078051.9829414,80.9268281501418,3.2060315436115996,-7.231283512681512,-1.7513155715299134,-1.15203629714021,9.456636856814505,-0.03978737856563965,-0.14525106970768858,0.3567016658763411,19.153911649132603,39.914052347352836,-78.0625
1773078052.0282786,81.72212694268798,2.6944312496617435,-7.587164174333026,-1.8172160941613262,-1.2001071862874657,9.524664099925213,-0.3280496429419107,-0.07110681917288833,0.31634092692397225,19.153911649132603,39.914052347352836,-78.0625
1773078052.08489,82.33615126398078,1.5906948783713253,-6.508711951025618,-1.6463325438797625,-1.097834375726883,9.56993547030129,0.12243291326928657,-0.35420869613518086,0.05235987755982989,17.44801614197193,44.445634082095026,-78.0625
1773078052.1510046,83.43382179492411,1.022108615844546,-5.697299775583697,-1.489521062335534,-0.992513702669057,9.600063061572227,-0.12397103392036118,-0.15258406767335636,0.15926129424448257,17.44801614197193,44.445634082095026,-78.0625
1773078052.180353,83.43382179492411,1.022108615844546,-5.697299775583697,-1.489521062335534,-0.992513702669057,9.600063061572227,-0.12397103392036118,-0.15258406767335636,0.15926129424448257,17.44801614197193,44.445634082095026,-78.0625
1773078052.2050054,83.48190699069258,0.6438235039278374,-5.4699605616475475,-1.2957431488719011,-0.9567661674688334,9.586661519942595,-0.03224369924364634,-0.15769684015320046,-0.028361600344907856,13.016885625952247,46.84880669345675,-77.6875
1773078052.2240424,83.48190699069258,0.6438235039278374,-5.4699605616475475,-1.2957431488719011,-0.9567661674688334,9.586661519942595,-0.03224369924364634,-0.15769684015320046,-0.028361600344907856,13.016885625952247,46.84880669345675,-77.6875
1773078052.2437525,83.6254135870205,0.5395281300354099,-5.26163878178099,-1.1452085397537441,-0.9119818225206048,9.65468051296145,0.05012242211727533,-0.1140828726305904,0.13744467859455345,13.016885625952247,46.84880669345675,-77.6875
1773078052.2805936,84.097626417165,0.6540077797128065,-4.978357014655495,-0.9764730604264328,-0.8854824468823554,9.753468180310671,0.12566333309955202,-0.061890001058659064,0.22689280275926285,13.516890046619967,47.858522905722715,-76.1875
1773078052.3122222,84.097626417165,0.6540077797128065,-4.978357014655495,-0.9764730604264328,-0.8854824468823554,9.753468180310671,0.12566333309955202,-0.061890001058659064,0.22689280275926285,13.516890046619967,47.858522905722715,-76.1875
1773078052.3655312,84.71911482510862,1.1188335556072897,-4.660181160826349,-0.8403359173894579,-0.8539804159580299,9.819210269401028,0.19146243465893226,0.06757684728028757,0.25416357232167425,13.516890046619967,47.858522905722715,-76.1875
1773078052.4727921,85.92949341738488,1.7677380637368967,-4.748601831404031,-0.7544036715829081,-0.8282211502010262,9.819474443108254,0.015170359354064999,0.1502165119880031,0.3196134192714616,12.566487842077473,49.462673194692165,-77.375
1773078052.56231,86.44218693092303,2.083347668295587,-4.802191476094598,-0.6026762967906925,-0.8171040451407383,9.819650247759398,0.042239891626381774,-0.013692165695493011,0.020725784867432664,14.91884389867569,50.1818409310275,-78.0625
1773078052.6486466,86.5186020682527,2.212763640552787,-4.428147805135543,-0.6068714926822435,-0.7160086514790872,9.829802578912826,0.05291085134895202,-0.023095123949489177,-0.026179938779914945,14.91884389867569,50.1818409310275,-78.0625
1773078052.6977859,175.0462531678634,-3.945038373312684,1.2662088317610534,-0.5507617592712253,-0.6660961653290522,9.836558841886463,0.06806156114973455,-0.04335909539644343,-0.0916297857297023,13.094320376068064,52.505130929166235,-77.375
1773078052.7505383,86.25775270676705,2.3212441500434755,-4.080076098625476,-0.5134213584729836,-0.632879963355207,9.841055059423015,0.05998946635478079,-0.013163750222532546,0.016362461737446838,13.094320376068064,52.505130929166235,-77.375
1773078052.7876017,86.48641064699885,2.4008384103685727,-4.260043024494601,-0.48857173886136174,-0.6107749519909014,9.874153247333425,0.009149064460484782,0.04847333537527037,0.06326818538479445,12.774705841677944,51.75813507950802,-78.0625
1773078052.8318355,86.71182198232793,2.4642552400441193,-4.478391594026517,-0.5379991941835326,-0.576236679823766,9.912905280193414,-0.03837400356284644,0.12703594149679742,0.1810779098944117,12.774705841677944,51.75813507950802,-78.0625
1773078052.8550382,86.71182198232793,2.4642552400441193,-4.478391594026517,-0.5379991941835326,-0.576236679823766,9.912905280193414,-0.03837400356284644,0.12703594149679742,0.1810779098944117,12.774705841677944,51.75813507950802,-78.0625
1773078052.9328914,87.54475960994284,2.798693185783639,-4.804274269680303,-0.7982629649802409,-0.5824207048723073,9.921310192204073,0.026159053193270186,0.05132609409639823,0.12217304763960307,12.83280993143086,52.773900881626794,-77.0
1773078052.9718928,87.76288851034575,2.958642755734681,-4.8561610736751835,-0.8721360263929798,-0.5792701023787493,9.920871918276005,0.12680365392187898,0.02140624893459166,0.07526732399225546,12.83280993143086,52.773900881626794,-77.0
1773078053.053647,88.30192428024716,3.3970841987355773,-4.8135892877565505,-0.9003677209206696,-0.6034812430683747,9.883784023092202,0.07953447969205912,0.06216647940341861,0.14835298641951802,13.465989410358302,53.825992250028406,-77.75
1773078053.0888083,88.52616154480089,3.5102801924487776,-4.812627095676234,-0.9287456304153715,-0.6289244910072082,9.8390317729024,0.052318595552868,0.046339534763818406,0.14944381720201447,13.465989410358302,53.825992250028406,-77.75
1773078053.117628,88.82110241837533,3.5921986214993846,-5.037667249207286,-0.9476308121820755,-0.6458566882907993,9.809249650316477,-0.09927199233136336,0.13018384978331207,0.17780541754692233,12.890914021183777,53.78966668374556,-78.0625
1773078053.1686697,89.02495084269769,3.6764876412180714,-5.252313843867021,-1.0346509528340206,-0.7389006777105144,9.789429980423655,-0.08553710336501211,0.11919613427676211,0.11562806294462433,12.890914021183777,53.78966668374556,-78.0625
1773078053.2381485,89.02495084269769,3.6764876412180714,-5.252313843867021,-1.0346509528340206,-0.7389006777105144,9.789429980423655,-0.08553710336501211,0.11919613427676211,0.11562806294462433,12.890914021183777,53.78966668374556,-78.0625
1773078053.3318794,89.6495536996375,2.9730008896899545,-6.671858519644461,-1.1021519165144416,-0.8101514175659207,9.766204876388244,-0.2174751359853281,0.06083268094641052,0.04799655442984406,14.772303688407705,55.620239796205986,-79.0
1773078053.36574,89.45170941544539,2.946674106144769,-6.7314296896454575,-1.1260782942099778,-0.8791455613660142,9.750748829094087,-0.013312058754717358,-0.014474474961964866,0.015271630954950384,16.295333419017553,57.1021323158168,-78.0625
1773078053.4250925,89.46676513179038,2.867317846694248,-6.834315140459548,-1.1420010312912061,-0.9250603933498908,9.73377277886055,-0.009297372992669597,-0.002958343982454439,-0.001090830782496456,16.295333419017553,57.1021323158168,-78.0625
1773078053.4383621,89.46676513179038,2.867317846694248,-6.834315140459548,-1.1420010312912061,-0.9250603933498908,9.73377277886055,-0.009297372992669597,-0.002958343982454439,-0.001090830782496456,16.295333419017553,57.1021323158168,-78.0625
1773078053.47076,89.54002297188157,2.6521396734942653,-7.090064562541013,-1.1830893045774875,-0.9614197020956288,9.714957132335035,0.0015636402002884757,0.0015214060957578475,0.031634092692397225,15.452697995353025,56.892676371079716,-78.5625
1773078053.5431607,89.53798742248836,2.6190557599823854,-7.152442461229563,-1.2031392185566117,-0.9463773163444047,9.733369586438085,0.003993568709782446,0.009973607831487265,0.007635815477475192,16.07135845863375,56.8842069452858,-78.0625
1773078053.585058,89.54557677024151,2.580004940006881,-7.211711600907032,-1.1853146078330525,-0.9060410127967609,9.745622868963077,-0.02871617318268366,-0.012720781291288563,0.017453292519943295,16.07135845863375,56.8842069452858,-78.0625
1773078053.646982,89.46171114989315,2.565647849918387,-7.2175902118673125,-1.159456022111397,-0.8935827016046621,9.777193073556559,0.0008240542046748663,0.003845749343925247,-0.031634092692397225,16.07135845863375,56.8842069452858,-78.0625
1773078053.665394,89.50845035915503,2.5685152987809166,-7.216326675264857,-1.2357502356863204,-0.9762691262687645,9.768096686685354,-0.009424075306261484,-0.01221348287059341,0.022907446432425576,15.012007582408783,56.98710602711548,-78.1875
1773078053.7015734,89.50845035915503,2.5685152987809166,-7.216326675264857,-1.2935214357577611,-1.0241034940984277,9.768733366250506,-0.0070152638490328266,-0.005303804282887153,-0.026179938779914945,15.012007582408783,56.98710602711548,-78.1875
1773078053.7481143,89.50048424683438,2.3586216350232547,-7.3575782607445115,-1.23875007316468,-0.9755291359834438,9.772784150801808,-0.0007607030478789238,0.0007818201001442379,0.0,15.990237900274149,57.41569726035412,-79.25
1773078053.8097138,89.50048424683438,2.3586216350232547,-7.3575782607445115,-1.23875007316468,-0.9755291359834438,9.772784150801808,-0.0007607030478789238,0.0007818201001442379,0.0,15.990237900274149,57.41569726035412,-79.25
1773078053.8296404,89.50174078370819,2.3244184405337776,-7.403892158320201,-1.2357743640360037,-0.9794830394829159,9.77519793296492,0.00158475725255379,0.0030639292437810092,-0.001090830782496456,14.711751735547617,57.65419123638464,-80.0625
1773078053.8724904,89.50148708496116,2.2666227978680586,-7.471168606975819,-1.2384595649847439,-0.9773193020162106,9.776804278030758,-0.0007818201001442379,-0.0007607030478789238,-0.008726646259971648,14.711751735547617,57.65419123638464,-80.0625
1773078053.9238956,89.50148708496116,2.2666227978680586,-7.471168606975819,-1.2384595649847439,-0.9773193020162106,9.776804278030758,-0.0007818201001442379,-0.0007607030478789238,-0.008726646259971648,14.711751735547617,57.65419123638464,-80.0625
1773078053.9586985,89.49770658501009,2.1521350848948297,-7.583162947306511,-1.2522340764144901,-0.9875431142352121,9.754457500776788,0.0007607030478789238,-0.0007818201001442379,0.002181661564992912,15.24929164046874,58.17721212565905,-78.5
1773078054.1086092,89.48810536290465,1.9782266352180624,-7.746768758956087,-1.2254539763036196,-0.9781770088105601,9.757545363539947,0.0007607030478789238,-0.0007818201001442379,0.0,14.532571767240578,57.47985093995984,-78.0625
1773078054.1886322,89.48810536290465,1.9782266352180624,-7.746768758956087,-1.2254539763036196,-0.9781770088105601,9.757545363539947,0.0007607030478789238,-0.0007818201001442379,0.0,14.532571767240578,57.47985093995984,-78.0625
1773078054.2206116,89.48927224085502,1.904852126558458,-7.815160347353673,-1.214938419908082,-0.9695814139381216,9.75836646685592,0.0,0.0,0.0,16.56410337147811,57.363642760454006,-77.75
1773078054.24557,89.48927224085502,1.904852126558458,-7.815160347353673,-1.214938419908082,-0.9695814139381216,9.75836646685592,0.0,0.0,0.0,16.56410337147811,57.363642760454006,-77.75
1773078054.2631073,89.48352911360807,1.8899316360146867,-7.831780283900572,-1.2031454185157053,-0.9591956394365747,9.762258013647696,-0.0015425231480231617,2.111705226531408e-05,0.0,16.56410337147811,57.363642760454006,-77.75
1773078054.2958949,89.4854477558867,1.8546127783047208,-7.862504468905286,-1.1928997997867319,-0.9499512714559858,9.761502682858875,-0.0023243432481673994,-0.0007395859956136097,0.001090830782496456,14.711751735547617,57.65419123638464,-79.6875
1773078054.3449836,89.4854477558867,1.8546127783047208,-7.862504468905286,-1.1928997997867319,-0.9499512714559858,9.761502682858875,-0.0023243432481673994,-0.0007395859956136097,0.001090830782496456,14.711751735547617,57.65419123638464,-79.6875
1773078054.3664093,89.4854477558867,1.8546127783047208,-7.862504468905286,-1.1928997997867319,-0.9499512714559858,9.761502682858875,-0.0023243432481673994,-0.0007395859956136097,0.001090830782496456,14.711751735547617,57.65419123638464,-79.6875
1773078054.421542,89.48537234155104,1.8074424476845168,-7.903957488273212,-1.1860814549736605,-0.9437992478312603,9.767690242071152,-0.0007818201001442379,-0.0007607030478789238,0.0,14.711751735547617,57.65419123638464,-79.6875
1773078054.462351,89.48096793272356,1.7689753025655004,-7.941049402461965,-1.1839414307052678,-0.9420378958981251,9.765117770192719,-0.0023454603004327136,-0.0022821091436367714,0.002181661564992912,15.990237900274149,57.41569726035412,-78.5
1773078054.5261273,89.48304022855321,1.730998410896123,-7.978222318903047,-1.1825172684602898,-0.9408657358622138,9.770096042308653,0.0015214060957578475,-0.0015636402002884757,-0.001090830782496456,15.990237900274149,57.41569726035412,-78.5
1773078054.5492022,89.48304022855321,1.730998410896123,-7.978222318903047,-1.1825172684602898,-0.9408657358622138,9.770096042308653,0.0015214060957578475,-0.0015636402002884757,-0.001090830782496456,15.990237900274149,57.41569726035412,-78.5
1773078054.5783143,89.48238408655757,1.695594938003158,-8.009434442207093,-1.1905203385284082,-0.9488893170903778,9.761126176885607,-0.0015425231480231617,2.111705226531408e-05,0.0,15.286827124722143,57.69051680266748,-77.6875
1773078054.613127,89.48238408655757,1.695594938003158,-8.009434442207093,-1.1905203385284082,-0.9488893170903778,9.761126176885607,-0.0015425231480231617,2.111705226531408e-05,0.0,15.286827124722143,57.69051680266748,-77.6875
1773078054.6483605,89.48314862815191,1.6811621724812993,-8.0261265172859,-1.191690474202982,-0.9500907822632935,9.757404346429832,0.0,0.0,0.0,15.286827124722143,57.69051680266748,-78.875
1773078054.6893475,89.47814528120952,1.6544666299651376,-8.05296504501461,-1.1924691864231387,-0.9508903439146236,9.754927509837083,0.0,0.0,0.001090830782496456,15.286827124722143,57.69051680266748,-78.875
1773078054.796038,89.47743660774968,1.621719652326871,-8.077725911016213,-1.1881923946292596,-0.9467569411288697,9.756624314460007,0.0007607030478789238,-0.0007818201001442379,-0.002181661564992912,14.69844263787146,56.68201050837207,-78.5
1773078054.8195643,89.47762959362446,1.6163969742728637,-8.090628053911987,-1.1901412535429359,-0.9486717098811102,9.744373072152735,0.0015636402002884757,0.0015214060957578475,0.001090830782496456,14.69844263787146,56.68201050837207,-78.5
1773078054.8408177,89.47762959362446,1.6163969742728637,-8.090628053911987,-1.1901412535429359,-0.9486717098811102,9.744373072152735,0.0015636402002884757,0.0015214060957578475,0.001090830782496456,14.69844263787146,56.68201050837207,-78.5
1773078055.034535,89.48059755642532,1.563992876943955,-8.144487999511956,-1.1905979321835594,-0.9413633575630436,9.743043883240064,0.0007607030478789238,-0.0007818201001442379,0.0,14.720221161341536,58.27285169966537,-78.5
1773078055.1378708,89.47418831480012,1.5189749423353371,-8.179387629734403,-1.1869150130681825,-0.9421196910959706,9.758061799495925,0.0023032261959020856,-0.000802937152409552,-0.002181661564992912,14.227476248497174,57.79341588449716,-79.25
1773078055.2242665,89.47418831480012,1.5189749423353371,-8.179387629734403,-1.1869150130681825,-0.9421196910959706,9.758061799495925,0.0023032261959020856,-0.000802937152409552,-0.002181661564992912,14.227476248497174,57.79341588449716,-79.25
1773078055.3409953,89.47581598152134,1.490113370732001,-8.21276584589556,-1.1821634032392054,-0.9433176776914717,9.762055260922976,0.0,0.0,0.002181661564992912,14.944196121725337,58.490777070196366,-77.75
1773078055.3765707,89.47581598152134,1.490113370732001,-8.21276584589556,-1.181398768015785,-0.9464476754549032,9.758022641478153,-0.0015636402002884757,-0.0015214060957578475,-0.001090830782496456,14.944196121725337,58.490777070196366,-77.75
1773078055.4397917,89.47529778056149,1.4546964720077167,-8.24398066385888,-1.1808899118161338,-0.9485306540021008,9.755338978284934,4.223410453062827e-05,0.0030850462960463234,0.001090830782496456,15.02531668008494,57.95928675512805,-79.0
1773078055.4928367,89.47612701664339,1.440266298081271,-8.260669838474715,-1.180551273699562,-0.9499168529568659,9.756898142115647,0.0,0.0,0.0,15.02531668008494,57.95928675512805,-79.0
1773078055.6223674,89.47757253283599,1.416728145026042,-8.281147628980806,-1.1826586648823316,-0.9484418448376011,9.757935748227986,-2.1117052265314135e-05,-0.0015425231480231617,0.001090830782496456,14.944196121725337,58.490777070196366,-77.75
1773078055.7235289,89.47184860637175,1.404459375404797,-8.291273131905658,-1.186458618212167,-0.9497929944776632,9.758626263504928,0.0,0.0,0.0,14.944196121725337,58.490777070196366,-77.75
1773078055.7839367,89.47184860637175,1.404459375404797,-8.291273131905658,-1.1889874447049122,-0.9506921694697941,9.749050458586213,0.0007818201001442379,0.0007607030478789238,-0.001090830782496456,15.286827124722143,57.69051680266748,-79.0
1773078055.8577573,89.47184860637175,1.404459375404797,-8.291273131905658,-1.1858753344093833,-0.9466250582495893,9.742677867381559,-0.0015214060957578475,0.0015636402002884757,0.0,15.286827124722143,57.69051680266748,-79.0
1773078055.9282234,89.47184860637175,1.404459375404797,-8.291273131905658,-1.1858753344093833,-0.9466250582495893,9.742677867381559,-0.0015214060957578475,0.0015636402002884757,0.0,15.286827124722143,57.69051680266748,-79.0
1773078055.9584837,89.47184860637175,1.404459375404797,-8.291273131905658,-1.183804259772259,-0.9439184411651522,9.74178209082869,0.000802937152409552,0.0023032261959020856,0.0,15.273518027045986,56.718336074654914,-78.5
1773078056.0264747,89.47184860637175,1.404459375404797,-8.291273131905658,-1.1847587338031846,-0.9397197096915494,9.744531073246552,-0.0007818201001442379,-0.0007607030478789238,-0.001090830782496456,15.273518027045986,56.718336074654914,-78.5
1773078056.0855124,89.47184860637175,1.404459375404797,-8.291273131905658,-1.1858166386595335,-0.9350659859939844,9.738661589087076,-2.1117052265314135e-05,-0.0015425231480231617,-0.002181661564992912,15.02531668008494,57.95928675512805,-78.0625
1773078056.1600456,89.47184860637175,1.404459375404797,-8.291273131905658,-1.1861627064452123,-0.9385587587688574,9.73576419078116,-0.0007818201001442379,-0.0007607030478789238,0.001090830782496456,14.464760306557132,58.98352198304073,-79.0
1773078056.2257652,89.47184860637175,1.404459375404797,-8.291273131905658,-1.1840602596242384,-0.943280668072511,9.740526227989271,0.0007818201001442379,0.0007607030478789238,0.001090830782496456,14.464760306557132,58.98352198304073,-79.0
1773078056.260164,89.47184860637175,1.404459375404797,-8.291273131905658,-1.18266110475075,-0.9464230459669092,9.747040422263147,0.0007607030478789238,-0.0007818201001442379,-0.001090830782496456,13.748040433328969,58.28616079734152,-78.5
1773078056.296209,89.47184860637175,1.404459375404797,-8.291273131905658,-1.18266110475075,-0.9464230459669092,9.747040422263147,0.0007607030478789238,-0.0007818201001442379,-0.001090830782496456,13.748040433328969,58.28616079734152,-78.5
1773078056.35166,89.47184860637175,1.404459375404797,-8.291273131905658,-1.18406273387854,-0.9461167553141663,9.751375545784093,0.0,0.0,0.001090830782496456,13.748040433328969,58.28616079734152,-78.5
1773078056.434984,89.47184860637175,1.404459375404797,-8.291273131905658,-1.1849955024058614,-0.9459129223062567,9.75426052206078,-0.0007607030478789238,0.0007818201001442379,-0.001090830782496456,14.711751735547617,57.65419123638464,-78.5
1773078056.4760082,89.47184860637175,1.404459375404797,-8.291273131905658,-1.1856162494410865,-0.9457772737164567,9.756180441545618,-0.00158475725255379,-0.0030639292437810092,0.001090830782496456,14.711751735547617,57.65419123638464,-78.5
1773078056.5485215,89.47184860637175,1.404459375404797,-8.291273131905658,-1.183631841620026,-0.9433542500287263,9.757458126515873,-0.0007607030478789238,0.0007818201001442379,0.001090830782496456,15.02531668008494,57.95928675512805,-77.75
1773078056.6015034,89.47184860637175,1.404459375404797,-8.291273131905658,-1.1823112403823979,-0.9417417548314898,9.758308411590901,0.0007818201001442379,0.0007607030478789238,0.0,15.02531668008494,57.95928675512805,-77.75
1773078056.6177359,89.47184860637175,1.404459375404797,-8.291273131905658,-1.179034886972035,-0.9383359062239679,9.755529155102707,-0.0007607030478789238,0.0007818201001442379,0.001090830782496456,15.02531668008494,57.95928675512805,-79.75
1773078056.6319222,89.47184860637175,1.404459375404797,-8.291273131905658,-1.179034886972035,-0.9383359062239679,9.755529155102707,-0.0007607030478789238,0.0007818201001442379,0.001090830782496456,15.02531668008494,57.95928675512805,-79.75
1773078056.6622956,89.47184860637175,1.404459375404797,-8.291273131905658,-1.1745217593101915,-0.9384668600602879,9.753679590956143,0.0007818201001442379,0.0007607030478789238,-0.002181661564992912,15.02531668008494,57.95928675512805,-79.75
1773078056.7278953,89.47184860637175,1.404459375404797,-8.291273131905658,-1.171518323266174,-0.9385540083755087,9.752448726677589,0.0015425231480231617,-2.111705226531408e-05,-0.001090830782496456,15.24929164046874,58.17721212565905,-79.6875
1773078056.7750034,89.47184860637175,1.404459375404797,-8.291273131905658,-1.171518323266174,-0.9385540083755087,9.752448726677589,0.0015425231480231617,-2.111705226531408e-05,-0.001090830782496456,15.24929164046874,58.17721212565905,-79.6875
1773078056.8207626,89.47184860637175,1.404459375404797,-8.291273131905658,-1.1695195701294594,-0.9386120046057777,9.751629600249865,-0.0015214060957578475,0.0015636402002884757,0.001090830782496456,15.24929164046874,58.17721212565905,-79.6875
1773078056.9039257,89.47184860637175,1.404459375404797,-8.291273131905658,-1.1681894222445113,-0.9386506004491613,9.754429592469776,-0.0007607030478789238,0.0007818201001442379,0.001090830782496456,15.286827124722143,57.69051680266748,-79.75
1773078056.9236677,89.47184860637175,1.404459375404797,-8.291273131905658,-1.1681894222445113,-0.9386506004491613,9.754429592469776,-0.0007607030478789238,0.0007818201001442379,0.001090830782496456,15.286827124722143,57.69051680266748,-79.75
1773078056.9469297,89.47184860637175,1.404459375404797,-8.291273131905658,-1.1673042236858038,-0.9386762855517892,9.756292956014166,-2.1117052265314135e-05,-0.0015425231480231617,-0.001090830782496456,15.286827124722143,57.69051680266748,-79.75
1773078056.985358,89.47184860637175,1.404459375404797,-8.291273131905658,-1.1714453930386164,-0.9386286217283754,9.750842780223183,0.0007818201001442379,0.0007607030478789238,-0.001090830782496456,15.757793514096429,56.5791114265424,-79.0
1773078057.0227792,89.47184860637175,1.404459375404797,-8.291273131905658,-1.1742012949830203,-0.9385969019863333,9.747215749116737,-2.1117052265314135e-05,-0.0015425231480231617,-0.001090830782496456,15.757793514096429,56.5791114265424,-79.0
1773078057.0623422,89.47184860637175,1.404459375404797,-8.291273131905658,-1.1760353169415794,-0.9385757928523369,9.754837335553947,0.0,0.0,-0.001090830782496456,15.757793514096429,56.5791114265424,-79.0
1773078057.2149765,89.47184860637175,1.404459375404797,-8.291273131905658,-1.172525578962316,-0.9386265019317582,9.759909416189211,0.0007607030478789238,-0.0007818201001442379,-0.001090830782496456,15.273518027045986,56.718336074654914,-78.5
1773078057.258701,89.47184860637175,1.404459375404797,-8.291273131905658,-1.1749201466487749,-0.9385954912853642,9.756594605778488,-0.0007818201001442379,-0.0007607030478789238,-0.003272492347489368,15.273518027045986,56.718336074654914,-78.5
1773078057.2996373,89.47184860637175,1.404459375404797,-8.291273131905658,-1.1741809536285273,-0.9409723620854046,9.75438863647901,-0.0007607030478789238,0.0007818201001442379,0.0,14.944196121725337,58.490777070196366,-78.5625
1773078057.3446548,89.47184860637175,1.404459375404797,-8.291273131905658,-1.1736890289308792,-0.9425541430514448,9.7529205885525,0.0007818201001442379,0.0007607030478789238,-0.001090830782496456,14.944196121725337,58.490777070196366,-78.5625
1773078057.375387,89.47184860637175,1.404459375404797,-8.291273131905658,-1.1733616585397537,-0.9436068006146935,9.748598507349257,0.0023243432481673994,0.0007395859956136097,-0.001090830782496456,15.779572037566505,58.16995261783569,-78.875
1773078057.4062293,89.47184860637175,1.404459375404797,-8.291273131905658,-1.175476548267939,-0.941909824425276,9.74572221058931,-0.0015636402002884757,-0.0015214060957578475,0.0,15.779572037566505,58.16995261783569,-78.875
1773078057.4320276,89.47184860637175,1.404459375404797,-8.291273131905658,-1.1744864757183762,-0.9384477546611724,9.747153178933225,-0.0023454603004327136,-0.0022821091436367714,0.001090830782496456,15.510802085105944,57.90844217319849,-79.0
1773078057.4785397,89.47184860637175,1.404459375404797,-8.291273131905658,-1.1762898585075723,-0.9432067960788436,9.751450584088456,0.0023032261959020856,-0.000802937152409552,0.0,15.510802085105944,57.90844217319849,-79.0
1773078057.5436513,89.47184860637175,1.404459375404797,-8.291273131905658,-1.1774899896086768,-0.9463738849803278,9.7543104592141,-0.0015425231480231617,2.111705226531408e-05,-0.002181661564992912,14.711751735547617,57.65419123638464,-79.25
1773078057.5868814,89.47184860637175,1.404459375404797,-8.291273131905658,-1.1782886634501188,-0.9484815472655646,9.756213674163318,4.223410453062827e-05,0.0030850462960463234,0.002181661564992912,14.711751735547617,57.65419123638464,-79.25
1773078057.6520312,89.47184860637175,1.404459375404797,-8.291273131905658,-1.18115292303634,-0.9474866649334552,9.757480242451718,-0.0038668663961905613,-0.0007184689433482957,0.0,14.944196121725337,58.490777070196366,-79.0
1773078057.6799798,89.47184860637175,1.404459375404797,-8.291273131905658,-1.18115292303634,-0.9474866649334552,9.757480242451718,-0.0038668663961905613,-0.0007184689433482957,0.0,14.944196121725337,58.490777070196366,-79.0
1773078057.7410293,89.47184860637175,1.404459375404797,-8.291273131905658,-1.1759312886509734,-0.944556587760779,9.758323129499155,-0.0007818201001442379,-0.0007607030478789238,0.0,14.944196121725337,58.490777070196366,-79.0
1773078057.7906659,89.47184860637175,1.404459375404797,-8.291273131905658,-1.1795841164411105,-0.9448746482276908,9.758884061413559,0.0015636402002884757,0.0015214060957578475,0.002181661564992912,14.97326218018482,57.38542128392408,-78.5
1773078057.8651829,89.47184860637175,1.404459375404797,-8.291273131905658,-1.1796175244918825,-0.94275356284894,9.759257355336574,0.0,0.0,-0.001090830782496456,14.97326218018482,57.38542128392408,-78.5
1773078057.9257264,89.47184860637175,1.404459375404797,-8.291273131905658,-1.1796175244918825,-0.94275356284894,9.759257355336574,0.0,0.0,-0.001090830782496456,14.97326218018482,57.38542128392408,-78.5
1773078057.9700599,89.45978235641425,1.7452637019831045,-7.465303528289177,-1.182037265215283,-0.9436747552899699,9.762850889979694,0.0,0.0,0.001090830782496456,14.79408221187778,57.21108098749928,-80.0625
1773078058.0899181,89.45978235641425,1.7452637019831045,-7.465303528289177,-1.182037265215283,-0.9436747552899699,9.762850889979694,0.0,0.0,0.001090830782496456,14.79408221187778,57.21108098749928,-80.0625
1773078058.1902604,89.47184860637175,1.404459375404797,-8.291273131905658,-1.1724993722316677,-0.9401568369513488,9.760840238867775,0.0023454603004327136,0.0022821091436367714,-0.001090830782496456,14.720221161341536,58.27285169966537,-78.5
1773078058.28126,89.47184860637175,1.404459375404797,-8.291273131905658,-1.1749027063622768,-0.9396139121459395,9.757214057873101,0.0015636402002884757,0.0015214060957578475,-0.001090830782496456,15.286827124722143,57.69051680266748,-78.0625
1773078058.3078022,89.47184860637175,1.404459375404797,-8.291273131905658,-1.1749027063622768,-0.9396139121459395,9.757214057873101,0.0015636402002884757,0.0015214060957578475,-0.001090830782496456,15.286827124722143,57.69051680266748,-78.0625
1773078058.3499565,89.47184860637175,1.404459375404797,-8.291273131905658,-1.178899606418,-0.9415853528193195,9.754800874928241,0.0015636402002884757,0.0015214060957578475,-0.001090830782496456,15.286827124722143,57.69051680266748,-78.0625
1773078058.3770514,89.47184860637175,1.404459375404797,-8.291273131905658,-1.178899606418,-0.9415853528193195,9.754800874928241,0.0015636402002884757,0.0015214060957578475,-0.001090830782496456,15.286827124722143,57.69051680266748,-78.0625
1773078058.4165194,89.47184860637175,1.404459375404797,-8.291273131905658,-1.1848820471715287,-0.9421749122881923,9.749900054843332,0.0015425231480231617,-2.111705226531408e-05,-0.001090830782496456,15.504752495253145,57.46654184228368,-79.25
1773078058.4706256,89.47184860637175,1.404459375404797,-8.291273131905658,-1.1848820471715287,-0.9421749122881923,9.749900054843332,0.0015425231480231617,-2.111705226531408e-05,-0.001090830782496456,15.504752495253145,57.46654184228368,-79.25
1773078058.508506,89.47184860637175,1.404459375404797,-8.291273131905658,-1.183143238211212,-0.9409569187392302,9.746588375907379,0.0,0.0,-0.003272492347489368,15.012007582408783,56.98710602711548,-78.5625
1773078058.5602486,89.47184860637175,1.404459375404797,-8.291273131905658,-1.183143238211212,-0.9409569187392302,9.746588375907379,0.0,0.0,-0.003272492347489368,15.012007582408783,56.98710602711548,-78.5625
1773078058.6318202,89.47184860637175,1.404459375404797,-8.291273131905658,-1.1836135126283764,-0.9419396893466632,9.756286456332216,-0.0007607030478789238,0.0007818201001442379,-0.001090830782496456,15.766262939890348,57.19777188982312,-79.6875
1773078058.6985657,89.47184860637175,1.404459375404797,-8.291273131905658,-1.182363799615495,-0.9455306396045715,9.76087378987941,0.0015636402002884757,0.0015214060957578475,0.0,15.766262939890348,57.19777188982312,-79.6875
1773078058.7738867,89.47184860637175,1.404459375404797,-8.291273131905658,-1.1785811543990063,-0.9471779692879394,9.765958226207722,-2.1117052265314135e-05,-0.0015425231480231617,-0.001090830782496456,13.965965803859971,58.062185836957724,-78.0625
1773078058.8006685,89.47184860637175,1.404459375404797,-8.291273131905658,-1.174219805351366,-0.9443511542570446,9.757274909568853,0.0015636402002884757,0.0015214060957578475,-0.001090830782496456,14.14514577216701,58.236526133382526,-78.5
1773078058.8558857,89.47184860637175,1.404459375404797,-8.291273131905658,-1.174219805351366,-0.9443511542570446,9.757274909568853,0.0015636402002884757,0.0015214060957578475,-0.001090830782496456,14.14514577216701,58.236526133382526,-78.5
1773078058.9029777,89.47184860637175,1.404459375404797,-8.291273131905658,-1.1693858421546341,-0.9412180136452639,9.754340855586896,-2.1117052265314135e-05,-0.0015425231480231617,0.001090830782496456,14.14514577216701,58.236526133382526,-78.875
1773078058.960616,89.47184860637175,1.404459375404797,-8.291273131905658,-1.1704979358099084,-0.9427176214204235,9.756233902609864,2.1117052265314135e-05,0.0015425231480231617,-0.001090830782496456,14.14514577216701,58.236526133382526,-78.875
1773078058.9917438,89.47184860637175,1.404459375404797,-8.291273131905658,-1.1704979358099084,-0.9427176214204235,9.756233902609864,2.1117052265314135e-05,0.0015425231480231617,-0.001090830782496456,14.14514577216701,58.236526133382526,-78.875
1773078059.0125072,89.47184860637175,1.404459375404797,-8.291273131905658,-1.1712380217145932,-0.9437155936430758,9.75414859254961,-0.0015425231480231617,2.111705226531408e-05,0.0,14.79408221187778,57.21108098749928,-79.25
1773078059.0537984,89.47184860637175,1.404459375404797,-8.291273131905658,-1.1717305406168599,-0.9443797330091708,9.75276084199895,-0.0015425231480231617,2.111705226531408e-05,0.002181661564992912,14.79408221187778,57.21108098749928,-79.25
1773078059.0876076,89.47184860637175,1.404459375404797,-8.291273131905658,-1.1720583064445216,-0.944821710338384,9.751837309509677,0.0007818201001442379,0.0007607030478789238,-0.001090830782496456,14.458710716704333,58.541621652125926,-79.6875
1773078059.1499512,89.47184860637175,1.404459375404797,-8.291273131905658,-1.1723411879137378,-0.9498461004190817,9.751222708954598,-0.000802937152409552,-0.0023032261959020856,0.001090830782496456,14.458710716704333,58.541621652125926,-79.6875
1773078059.172873,89.47184860637175,1.404459375404797,-8.291273131905658,-1.1723411879137378,-0.9498461004190817,9.751222708954598,-0.000802937152409552,-0.0023032261959020856,0.001090830782496456,14.458710716704333,58.541621652125926,-79.6875
1773078059.197966,89.47184860637175,1.404459375404797,-8.291273131905658,-1.1748621934380206,-0.9507922678528674,9.750813699150731,0.0007607030478789238,-0.0007818201001442379,0.0,15.02531668008494,57.95928675512805,-79.0
1773078059.2230895,89.47184860637175,1.404459375404797,-8.291273131905658,-1.1748621934380206,-0.9507922678528674,9.750813699150731,0.0007607030478789238,-0.0007818201001442379,0.0,15.02531668008494,57.95928675512805,-79.0
1773078059.2446063,89.47184860637175,1.404459375404797,-8.291273131905658,-1.181205396585979,-0.9466269156330609,9.753886619402516,0.0,0.0,0.0,15.02531668008494,57.95928675512805,-79.0
1773078059.2848482,89.47184860637175,1.404459375404797,-8.291273131905658,-1.1854267274227233,-0.9438549202608127,9.75593161350331,-0.0015636402002884757,-0.0015214060957578475,0.002181661564992912,15.24929164046874,58.17721212565905,-78.5625
1773078059.3356252,89.47184860637175,1.404459375404797,-8.291273131905658,-1.1834409598616136,-0.9373446861727739,9.75060231081867,0.0007818201001442379,0.0007607030478789238,-0.002181661564992912,15.24929164046874,58.17721212565905,-78.5625
1773078059.3515823,89.47184860637175,1.404459375404797,-8.291273131905658,-1.1845817187432675,-0.9400752082830929,9.747055719414252,2.1117052265314135e-05,0.0015425231480231617,0.0,14.406656216804214,57.96775618092196,-79.0
1773078059.3798249,89.47184860637175,1.404459375404797,-8.291273131905658,-1.1853408810358965,-0.9418923402455797,9.748040614159954,0.0,0.0,0.0,14.406656216804214,57.96775618092196,-79.0
1773078059.413158,89.47184860637175,1.404459375404797,-8.291273131905658,-1.1853408810358965,-0.9418923402455797,9.748040614159954,0.0,0.0,0.0,14.406656216804214,57.96775618092196,-79.0
1773078059.4750683,89.47184860637175,1.404459375404797,-8.291273131905658,-1.1861175523792085,-0.9391761251744176,9.7424420128332,-0.0015636402002884757,-0.0015214060957578475,-0.001090830782496456,14.79408221187778,57.21108098749928,-79.0
1773078059.5134864,89.47184860637175,1.404459375404797,-8.291273131905658,-1.1861175523792085,-0.9391761251744176,9.7424420128332,-0.0015636402002884757,-0.0015214060957578475,-0.001090830782496456,14.79408221187778,57.21108098749928,-79.0
1773078059.557545,89.47184860637175,1.404459375404797,-8.291273131905658,-1.1839654531254253,-0.93896125941366,9.738280020554104,-0.0015636402002884757,-0.0015214060957578475,0.002181661564992912,14.406656216804214,57.96775618092196,-80.0625
1773078059.712233,89.47184860637175,1.404459375404797,-8.291273131905658,-1.1825332551125565,-0.9388182686500837,9.748890708014143,0.0007818201001442379,0.0007607030478789238,-0.002181661564992912,14.406656216804214,57.96775618092196,-80.0625
1773078059.7862291,89.47184860637175,1.404459375404797,-8.291273131905658,-1.1815801433336925,-0.9387231098942352,9.755952001989654,-0.0007818201001442379,-0.0007607030478789238,0.002181661564992912,14.79408221187778,57.21108098749928,-79.0
1773078059.8593023,89.47184860637175,1.404459375404797,-8.291273131905658,-1.1809458580918148,-0.938659782805211,9.760651214250535,0.0015425231480231617,-2.111705226531408e-05,0.0,14.79408221187778,57.21108098749928,-79.0
1773078059.947745,89.47184860637175,1.404459375404797,-8.291273131905658,-1.1781909972822628,-0.9410151473736793,9.763778487516511,0.0007818201001442379,0.0007607030478789238,-0.001090830782496456,15.510802085105944,57.90844217319849,-78.0625
1773078060.0077221,89.47184860637175,1.404459375404797,-8.291273131905658,-1.1763576681873178,-0.9425826161828487,9.759169429526448,-0.0023243432481673994,-0.0007395859956136097,0.0,15.510802085105944,57.90844217319849,-78.0625
1773078060.0615993,89.47184860637175,1.404459375404797,-8.291273131905658,-1.1751376081542597,-0.9436257491655771,9.76279237633525,-0.0007818201001442379,-0.0007607030478789238,0.0,13.965965803859971,58.062185836957724,-79.25
1773078060.085865,89.47184860637175,1.404459375404797,-8.291273131905658,-1.174325671831223,-0.9443199425130239,9.755168071843583,-0.0007818201001442379,-0.0007607030478789238,0.001090830782496456,13.965965803859971,58.062185836957724,-79.25
1773078060.1194797,89.47184860637175,1.404459375404797,-8.291273131905658,-1.1832458554887983,-0.944652406486519,9.75343929408076,0.0015636402002884757,0.0015214060957578475,0.0,16.295333419017553,57.1021323158168,-78.0625
1773078060.1368222,89.47184860637175,1.404459375404797,-8.291273131905658,-1.1832458554887983,-0.944652406486519,9.75343929408076,0.0015636402002884757,0.0015214060957578475,0.0,16.295333419017553,57.1021323158168,-78.0625
1773078060.2072856,89.47184860637175,1.404459375404797,-8.291273131905658,-1.1843871219903261,-0.940208155413989,9.752288811791313,2.1117052265314135e-05,0.0015425231480231617,0.0,16.295333419017553,57.1021323158168,-78.0625
1773078060.2630582,89.47184860637175,1.404459375404797,-8.291273131905658,-1.1875441301371148,-0.9395833070372702,9.751523178679417,-0.0015214060957578475,0.0015636402002884757,0.001090830782496456,15.24929164046874,58.17721212565905,-79.0
1773078060.3085613,89.47184860637175,1.404459375404797,-8.291273131905658,-1.1792798804391318,-0.9429916223297979,9.75067457833932,0.0023243432481673994,0.0007395859956136097,0.001090830782496456,14.944196121725337,58.490777070196366,-79.0
1773078060.4995186,89.47184860637175,1.404459375404797,-8.291273131905658,-1.1756198476981812,-0.9445010812665454,9.750298754139635,0.0015425231480231617,-2.111705226531408e-05,0.0,15.02531668008494,57.95928675512805,-78.5
1773078060.5727975,89.47184860637175,1.404459375404797,-8.291273131905658,-1.1722490888219301,-0.9425697151816054,9.756889040957264,-0.0007818201001442379,-0.0007607030478789238,0.0,15.02531668008494,57.95928675512805,-78.5
1773078060.5968103,89.47184860637175,1.404459375404797,-8.291273131905658,-1.170005886443629,-0.9412844126268508,9.761274803216068,2.1117052265314135e-05,0.0015425231480231617,0.001090830782496456,14.682685677088134,58.75954702265693,-79.0
1773078060.7118082,89.47184860637175,1.404459375404797,-8.291273131905658,-1.1732433194243985,-0.9403643011621404,9.75750325559249,-0.00158475725255379,-0.0030639292437810092,0.001090830782496456,14.682685677088134,58.75954702265693,-79.0
1773078060.732987,89.47184860637175,1.404459375404797,-8.291273131905658,-1.1732433194243985,-0.9403643011621404,9.75750325559249,-0.00158475725255379,-0.0030639292437810092,0.001090830782496456,14.682685677088134,58.75954702265693,-79.0
1773078060.8103006,89.47184860637175,1.404459375404797,-8.291273131905658,-1.1777953029474084,-0.9420847283272067,9.754993332779945,0.0007818201001442379,0.0007607030478789238,0.001090830782496456,15.504752495253145,57.46654184228368,-79.0
1773078060.8386912,89.47184860637175,1.404459375404797,-8.291273131905658,-1.180824597132984,-0.9432296533871276,9.753323007185871,-0.0015425231480231617,2.111705226531408e-05,0.001090830782496456,15.504752495253145,57.46654184228368,-79.0
1773078060.9156516,89.47184860637175,1.404459375404797,-8.291273131905658,-1.180824597132984,-0.9432296533871276,9.753323007185871,-0.0015425231480231617,2.111705226531408e-05,0.001090830782496456,15.504752495253145,57.46654184228368,-79.0
1773078060.9430873,89.47184860637175,1.404459375404797,-8.291273131905658,-1.1781102994687347,-0.9440563451971454,9.755556535869093,-0.0015636402002884757,-0.0015214060957578475,0.001090830782496456,15.504752495253145,57.46654184228368,-79.0
1773078060.9775054,89.47184860637175,1.404459375404797,-8.291273131905658,-1.1781102994687347,-0.9440563451971454,9.755556535869093,-0.0015636402002884757,-0.0015214060957578475,0.001090830782496456,15.504752495253145,57.46654184228368,-79.0
1773078061.012374,89.47184860637175,1.404459375404797,-8.291273131905658,-1.173971213627356,-0.9470040074007638,9.75035270084299,-0.000802937152409552,-0.0023032261959020856,0.0,15.504752495253145,57.46654184228368,-79.0
1773078061.044411,89.47184860637175,1.404459375404797,-8.291273131905658,-1.1712166982365366,-0.9489656436697276,9.750234718471084,0.00158475725255379,0.0030639292437810092,-0.001090830782496456,15.510802085105944,57.90844217319849,-79.25
1773078061.0754685,89.47184860637175,1.404459375404797,-8.291273131905658,-1.171716350080412,-0.9478735826550059,9.74681109081321,0.0023454603004327136,0.0022821091436367714,-0.001090830782496456,15.510802085105944,57.90844217319849,-79.25
1773078061.1120985,89.47184860637175,1.404459375404797,-8.291273131905658,-1.171716350080412,-0.9478735826550059,9.74681109081321,0.0023454603004327136,0.0022821091436367714,-0.001090830782496456,15.510802085105944,57.90844217319849,-79.25
1773078061.1431124,89.47184860637175,1.404459375404797,-8.291273131905658,-1.1743816138675467,-0.9447493202100254,9.741187593144003,-0.0007607030478789238,0.0007818201001442379,0.001090830782496456,14.532571767240578,57.47985093995984,-78.875
1773078061.1596534,89.47184860637175,1.404459375404797,-8.291273131905658,-1.1761553171449377,-0.9426701584531895,9.73744521826373,0.0023243432481673994,0.0007395859956136097,-0.001090830782496456,14.532571767240578,57.47985093995984,-78.875
1773078061.2226014,89.47184860637175,1.404459375404797,-8.291273131905658,-1.1773356968624775,-0.9412864995297736,9.744990044707933,0.0023454603004327136,0.0022821091436367714,0.0,15.452697995353025,56.892676371079716,-79.0
1773078061.266149,89.47184860637175,1.404459375404797,-8.291273131905658,-1.1773356968624775,-0.9412864995297736,9.744990044707933,0.0023454603004327136,0.0022821091436367714,0.0,15.452697995353025,56.892676371079716,-79.0
1773078061.3573449,89.47184860637175,1.404459375404797,-8.291273131905658,-1.1786439874969643,-0.939752901498623,9.750007348610696,0.0,0.0,-0.002181661564992912,15.24929164046874,58.17721212565905,-78.5625
1773078061.3936105,89.50648617297139,1.4082045130189573,-8.306900312272033,-1.1837868952590898,-0.9440105997474301,9.750004890418328,-0.020602333449526885,0.01648157325982494,0.06544984694978735,15.24929164046874,58.17721212565905,-78.5625
1773078061.4149184,89.62775787955563,1.4193085696778365,-8.33631528614279,-1.2416383010580057,-1.1211513105719118,9.753348366226087,-0.020412279979139056,0.030364281592033394,0.10035643198967395,15.24929164046874,58.17721212565905,-78.5625
1773078061.4338117,89.62775787955563,1.4193085696778365,-8.33631528614279,-1.2416383010580057,-1.1211513105719118,9.753348366226087,-0.020412279979139056,0.030364281592033394,0.10035643198967395,15.24929164046874,58.17721212565905,-78.5625
1773078061.5639844,89.86227358809778,1.4013315670162196,-8.327003583726492,-1.3716645323464456,-1.3536099075099903,9.757054155152248,-0.006423497219276416,-0.018425809567216685,-0.014180800172453928,15.24929164046874,58.17721212565905,-79.25
1773078061.6644123,89.98084148069991,1.4083677755212904,-8.385373013300358,-1.4201925303941256,-1.3291318712607012,9.754694461453745,-0.0114738968749798,0.007099732058094083,0.03599741582238305,16.52777780519527,57.93871814962853,-77.25
1773078061.6817415,90.09446411094117,1.3956306302709254,-8.435734514075344,-1.1564267566634412,-1.1134558023278391,9.873548133120394,-0.00756479637425861,0.010903247297488702,0.050178215994836975,16.52777780519527,57.93871814962853,-77.25
1773078061.7558951,90.63362217528261,1.430238550817241,-8.442497193232718,-1.129215294246814,-1.0909050583097661,9.832219902468546,-0.007797083949177065,-0.006064507330766076,0.18871372537188688,16.812304718439158,56.12269207998088,-77.0
1773078061.8132012,90.93624117500201,1.4264826354567754,-8.42836738677529,-1.1063113539028928,-1.0712322879410299,9.754539751026536,-0.024109720790879488,-0.014326655596107667,0.17453292519943295,16.812304718439158,56.12269207998088,-77.0
1773078061.8540895,91.71600611226972,1.4889574723453958,-8.40539001132773,-1.1261898174000624,-1.0316381766484535,9.702844477986027,-0.010966598454284644,-0.012192365818328093,0.17671458676442586,15.510802085105944,57.90844217319849,-76.5625
1773078061.885495,92.35402489793755,1.508617832234013,-8.408935876204588,-1.1724010125930748,-0.9953749208617744,9.728653861983354,-0.015615284950619444,-0.013671537809555314,0.23561944901923448,15.510802085105944,57.90844217319849,-76.5625
1773078061.929066,92.35402489793755,1.508617832234013,-8.408935876204588,-1.1724010125930748,-0.9953749208617744,9.728653861983354,-0.015615284950619444,-0.013671537809555314,0.23561944901923448,15.510802085105944,57.90844217319849,-76.5625
1773078061.9439404,92.81060492251656,1.5175389626597737,-8.408602667262095,-1.2058105827091201,-0.9924959167106278,9.772590612382421,-0.017897394094256214,-0.011326077509122602,0.18871372537188688,18.329284859196207,57.16268426867689,-75.0
1773078061.982531,93.1334684544204,1.5035203381759052,-8.405206851306032,-1.2280442784119963,-0.9905799716086232,9.841971369455171,-0.020179503237892988,-0.008980617208689888,0.18980455615438332,18.329284859196207,57.16268426867689,-75.0
1773078062.048955,93.85983708792776,1.4945131701543224,-8.402447130779384,-1.1766816840334655,-0.994941788263145,9.888143488253249,-0.01950326839907532,-0.01593252990092677,0.22252947962927702,17.90069362595756,58.14091458654226,-75.0
1773078062.0950859,94.3068391884618,1.5117424695426667,-8.398308802593114,-1.142500451232327,-0.9978445285220447,9.898799847293091,-0.02094020628577191,-0.00819879710854565,0.19416787928436915,17.90069362595756,58.14091458654226,-75.0
1773078062.1493611,94.733147510777,1.5047401377509746,-8.415825917766938,-1.155715843214618,-1.0347675357362975,9.889165976658179,-0.01946103429454469,-0.012847483604880448,0.19416787928436915,18.87287435397013,58.1276054888661,-74.5625
1773078062.1925611,95.78270575467347,1.554887941772762,-8.437214258567757,-1.180839796418819,-1.0425568283087387,9.88275474336803,-0.0016903425138803604,-0.010776544983896817,0.21598449493429828,18.87287435397013,58.1276054888661,-74.5625
1773078062.3210702,97.56166028229835,1.5974557035858112,-8.522966054931294,-1.0972052030469988,-0.9660399989278287,9.832185949630782,-0.02087685512897597,-0.0035712276644761635,0.20507618710933373,20.94315136043163,57.61308205255166,-72.5625
1773078062.4980905,99.31848721554209,1.622713966149541,-8.5527934835722,-1.1186155387351913,-0.996797129481502,9.803111872371533,-0.016312636841702425,-0.008262148265341591,0.20398535632683726,21.314820394721867,58.93394337341384,-71.875
1773078062.6218178,100.20473592577221,1.6384641516878993,-8.561357800673598,-1.167878470530171,-1.0100306660146987,9.76192957581353,-0.00936072414946554,-0.0075859134265239235,0.19853120241435498,23.064272948822687,57.58404402125824,-69.875
1773078062.662067,100.79340397730894,1.6273294502773894,-8.565132253361993,-1.1934698772203125,-1.0118391835497142,9.704417212124701,-0.020961323338037224,-0.009741320256568809,0.21271200258680892,23.064272948822687,57.58404402125824,-69.875
