timestamp,yaw,pitch,roll,ax,ay,az,gx,gy,gz,mx,my,mz
1772305821.3148687,-0.09774057087099723,1.3463627249793115,-8.30406696749886,-0.2289664405102965,-1.411325355922662,9.755321246619028,0.001090830782496456,0.002181661564992912,0.0,-26.75,53.6875,-81.25
1772305821.3280985,-0.09774057087099723,1.3463627249793115,-8.30406696749886,-0.2289664405102965,-1.411325355922662,9.755321246619028,0.001090830782496456,0.002181661564992912,0.0,-26.75,53.6875,-81.25
1772305821.3388114,-0.09774057087099723,1.3463627249793115,-8.30406696749886,-0.22596706599789892,-1.4108820095613357,9.760231453597383,0.001090830782496456,0.0,-0.002181661564992912,-26.75,53.6875,-81.25
1772305821.3510385,-0.09774057087099723,1.3463627249793115,-8.30406696749886,-0.223971015765107,-1.4105869675103766,9.760154029783552,-0.001090830782496456,0.002181661564992912,-0.001090830782496456,-26.75,53.6875,-81.25
1772305821.3625014,-0.09774057087099723,1.3463627249793115,-8.30406696749886,-0.223971015765107,-1.4105869675103766,9.760154029783552,-0.001090830782496456,0.002181661564992912,-0.001090830782496456,-26.75,53.6875,-81.25
1772305821.3740678,-0.09774057087099723,1.3463627249793115,-8.30406696749886,-0.22264266663252608,-1.4103906203212988,9.760102505100328,0.0,0.0,0.001090830782496456,-27.5,53.0,-82.5
1772305821.3849497,-0.09774057087099723,1.3463627249793115,-8.30406696749886,-0.22264266663252608,-1.4103906203212988,9.760102505100328,0.0,0.0,0.001090830782496456,-27.5,53.0,-82.5
1772305821.396583,-0.09774057087099723,1.3463627249793115,-8.30406696749886,-0.22175866512342554,-1.4136050651676288,9.760068215999212,0.0,-0.002181661564992912,0.0,-27.5,53.0,-82.5
1772305821.4097257,-0.09774057087099723,1.3463627249793115,-8.30406696749886,-0.22175866512342554,-1.4136050651676288,9.760068215999212,0.0,-0.002181661564992912,0.0,-27.5,53.0,-82.5
1772305821.4230707,-0.09774057087099723,1.3463627249793115,-8.30406696749886,-0.2245154837013824,-1.4123991305978403,9.760045396985452,0.0,-0.001090830782496456,0.001090830782496456,-27.5,53.0,-82.5
1772305821.46211,1.4528215588967762e-06,1.3463427143969533,-8.303943966977704,-0.2245154837013824,-1.4123991305978403,9.760045396985452,0.0,-0.001090830782496456,0.001090830782496456,-27.5,53.0,-82.5
1772305821.4822764,1.4528215588967762e-06,1.3463427143969533,-8.303943966977704,-0.2239360458289739,-1.4153257768182366,9.7600302111867,-0.0010908291952960653,-1.8608416291678112e-06,0.0,-26.84101316715611,53.32928967425454,-80.875
1772305821.4969966,1.4528215588967762e-06,1.3463427143969533,-8.303943966977704,-0.22515979107113412,-1.4136748060290498,9.760020105207268,0.0,0.0,-0.001090830782496456,-26.84101316715611,53.32928967425454,-80.875
1772305821.5124636,1.4528215588967762e-06,1.3463427143969533,-8.303943966977704,-0.22515979107113412,-1.4136748060290498,9.760020105207268,0.0,0.0,-0.001090830782496456,-26.84101316715611,53.32928967425454,-80.875
1772305821.536921,1.4528215588967762e-06,1.3463427143969533,-8.303943966977704,-0.2293135802939021,-1.4159269166572663,9.760013379790847,0.0010852466704085618,0.0032743484275173642,-0.001090830782496456,-26.84101316715611,53.32928967425454,-80.875
1772305821.5693426,1.4528215588967762e-06,1.3463427143969533,-8.303943966977704,-0.23207788062078824,-1.4174256711226205,9.760008904101346,-0.0010908291952960653,-1.8608416291678112e-06,-0.001090830782496456,-26.0929333891252,54.45556745779696,-81.25
1772305821.5973344,1.4528215588967762e-06,1.3463427143969533,-8.303943966977704,-0.23391178520325911,-1.4217681823171835,9.75666081387266,-0.0010908291952960653,-1.8608416291678112e-06,-0.001090830782496456,-26.0929333891252,54.45556745779696,-81.25
1772305821.6209357,1.4528215588967762e-06,1.3463427143969533,-8.303943966977704,-0.23391178520325911,-1.4217681823171835,9.75666081387266,-0.0010908291952960653,-1.8608416291678112e-06,-0.001090830782496456,-26.0929333891252,54.45556745779696,-81.25
1772305821.6394186,1.4528215588967762e-06,1.3463427143969533,-8.303943966977704,-0.24182244189694557,-1.4246694878197643,9.75443269722609,-5.582524887503434e-06,0.003272487585888196,-0.001090830782496456,-26.46537400256525,52.954929930124,-80.875
1772305821.6619375,1.4528215588967762e-06,1.3463427143969533,-8.303943966977704,-0.2337064681985514,-1.4265774485987706,9.75294991048749,-0.0010889683536668975,-0.0010926900369252332,-0.002181661564992912,-26.46537400256525,52.954929930124,-80.875
1772305821.6956327,1.4528215588967762e-06,1.3463427143969533,-8.303943966977704,-0.22831108476945058,-1.4245020683438263,9.755308244184086,0.0010871075120377296,0.0021835192322212987,0.0,-25.468574008754196,54.831633095874594,-80.5
1772305821.7113447,1.4528215588967762e-06,1.3463427143969533,-8.303943966977704,-0.22831108476945058,-1.4245020683438263,9.755308244184086,0.0010871075120377296,0.0021835192322212987,0.0,-25.468574008754196,54.831633095874594,-80.5
1772305821.727425,1.4528215588967762e-06,1.3463427143969533,-8.303943966977704,-0.224720517367766,-1.4231209259676776,9.753532577207537,1.8608416291678112e-06,-0.0010908291952960653,0.0,-25.468574008754196,54.831633095874594,-80.5
1772305821.7461886,1.4528215588967762e-06,1.3463427143969533,-8.303943966977704,-0.224720517367766,-1.4231209259676776,9.753532577207537,1.8608416291678112e-06,-0.0010908291952960653,0.0,-25.468574008754196,54.831633095874594,-80.5
1772305821.7867208,1.4528215588967762e-06,1.3463427143969533,-8.303943966977704,-0.22233674127702469,-1.4188566843046673,9.755696002377462,-1.8608416291678112e-06,0.0010908291952960653,0.001090830782496456,-26.467932843485897,54.4549277475668,-81.25
1772305821.847327,1.4528215588967762e-06,1.3463427143969533,-8.303943966977704,-0.2240897653514005,-1.4193696923585029,9.757135737661004,3.7216832583356223e-06,-0.0021816583905921306,0.0,-26.467932843485897,54.4549277475668,-81.25
1772305821.9361763,1.4528215588967762e-06,1.3463427143969533,-8.303943966977704,-0.22525638329033557,-1.419711093487655,9.761438977116624,-1.8608416291678112e-06,0.0010908291952960653,0.001090830782496456,-26.843572008076755,54.829287491697336,-80.75
1772305822.1202407,1.4528215588967762e-06,1.3463427143969533,-8.303943966977704,-0.2232043140218809,-1.4200837838750389,9.762863422013917,0.0010889683536668975,0.0010926900369252332,-0.002181661564992912,-26.842399205988126,54.141788492036056,-81.5625
1772305822.1601417,1.4528215588967762e-06,1.3463427143969533,-8.303943966977704,-0.22132201848162542,-1.420180607009171,9.761905575363741,-0.0010908291952960653,-1.8608416291678112e-06,-0.001090830782496456,-26.842399205988126,54.141788492036056,-81.5625
1772305822.201062,1.4528215588967762e-06,1.3463427143969533,-8.303943966977704,-0.2234144786662586,-1.4202507481291642,9.761268139117899,-0.0010908291952960653,-1.8608416291678112e-06,0.0,-26.09165396866488,53.70556854907556,-81.5625
1772305822.2504294,1.4528215588967762e-06,1.3463427143969533,-8.303943966977704,-0.2234144786662586,-1.4202507481291642,9.761268139117899,-0.0010908291952960653,-1.8608416291678112e-06,0.0,-26.09165396866488,53.70556854907556,-81.5625
1772305822.2737362,1.4528215588967762e-06,1.3463427143969533,-8.303943966977704,-0.2248069875448202,-1.4202974262609922,9.76084393241692,0.0,0.0,0.0,-26.09165396866488,53.70556854907556,-81.5625
1772305822.2971525,1.4528215588967762e-06,1.3463427143969533,-8.303943966977704,-0.2257393930539734,-1.4169833831962406,9.763906739303437,-0.0010908291952960653,-1.8608416291678112e-06,-0.001090830782496456,-26.466653423025576,53.7049288388454,-82.0625
1772305822.3360407,1.4528215588967762e-06,1.3463427143969533,-8.303943966977704,-0.22635419209884894,-1.4181230313969895,9.7625998913653,1.8608416291678112e-06,-0.0010908291952960653,0.0,-26.466653423025576,53.7049288388454,-82.0625
1772305822.3591125,1.4528215588967762e-06,1.3463427143969533,-8.303943966977704,-0.22635419209884894,-1.4181230313969895,9.7625998913653,1.8608416291678112e-06,-0.0010908291952960653,0.0,-26.466653423025576,53.7049288388454,-82.0625
1772305822.4097404,0.11794073134406205,1.36191605297866,-8.316507748780166,-0.22674621477801668,-1.428916775064046,9.761730198660917,-0.011999121148256717,-2.0469257920845922e-05,0.05126904677733343,-26.841652877386274,53.70428912861524,-81.5625
1772305822.4318407,0.11794073134406205,1.36191605297866,-8.316507748780166,-0.22674621477801668,-1.428916775064046,9.761730198660917,-0.011999121148256717,-2.0469257920845922e-05,0.05126904677733343,-26.841652877386274,53.70428912861524,-81.5625
1772305822.4663503,0.23604382110428615,1.3775102544309947,-8.315085207729977,-0.23024949302722697,-1.4963175204272459,9.761151427881256,1.8608416291678112e-06,-0.0010908291952960653,0.02945243112740431,-26.841652877386274,53.70428912861524,-81.5625
1772305822.510231,0.14568245540079938,1.3639381140720337,-8.330129197598662,-0.20582003084746,-1.5411263123042855,9.730660257026809,0.005461589342996998,-0.004354012573038422,-0.04036073895236887,-26.843572008076755,54.829287491697336,-79.6875
1772305822.542273,0.014299791624609048,1.3403583075135415,-8.317723875708745,-0.24034821436563195,-1.402544918230321,9.840539258008256,-0.017468153857770386,0.008696860096301839,-0.025089107997418487,-26.46739975162743,54.14242820226622,-81.25
1772305822.5931883,0.014299791624609048,1.3403583075135415,-8.317723875708745,-0.24034821436563195,-1.402544918230321,9.840539258008256,-0.017468153857770386,0.008696860096301839,-0.025089107997418487,-26.46739975162743,54.14242820226622,-81.25
1772305822.612419,0.007241598224055506,1.339839618881587,-8.3247820691093,-0.24957075496702558,-1.3416350830725616,9.833668646765949,-0.006528227597113882,-0.009828627807439596,-0.006544984694978736,-26.46739975162743,54.14242820226622,-81.25
1772305822.6300147,0.0007724737374353671,1.3323568901289933,-8.324851378798133,-0.24212810115102137,-1.418156181961158,9.82909633173395,-0.003276209269146532,0.0021760758657046273,-0.01090830782496456,-26.46739975162743,54.14242820226622,-81.25
1772305822.6442273,0.0007724737374353671,1.3323568901289933,-8.324851378798133,-0.24212810115102137,-1.418156181961158,9.82909633173395,-0.003276209269146532,0.0021760758657046273,-0.01090830782496456,-26.46739975162743,54.14242820226622,-81.25
1772305822.6577713,-0.006204463348251297,1.3318491990890027,-8.324932042829813,-0.23702102521938648,-1.5593980031563008,9.759151273009874,-0.009817462757664588,-1.67475746625103e-05,-0.006544984694978736,-26.842399205988126,54.141788492036056,-81.25
1772305822.670918,-0.006204463348251297,1.3318491990890027,-8.324932042829813,-0.23362232323665968,-1.6533928573871453,9.7126036177665,0.009819323599293757,-0.0010740816206335551,-0.002181661564992912,-26.842399205988126,54.141788492036056,-81.25
1772305822.6990051,-0.006204463348251297,1.3318491990890027,-8.324932042829813,-0.23362232323665968,-1.6533928573871453,9.7126036177665,0.009819323599293757,-0.0010740816206335551,-0.002181661564992912,-26.842399205988126,54.141788492036056,-81.25
1772305822.7245889,0.00034576787251340015,1.3393437985700873,-8.317886238757756,-0.21816270265897084,-1.6088791383814596,9.681626673173415,0.003263183377742357,0.00545972850136783,0.013089969389957472,-27.594210627028318,55.203007525597705,-80.875
1772305822.7458682,0.006815384433882443,1.3468261572208609,-8.317816556375652,-0.2079715067586322,-1.522388939353076,9.684427644533097,-0.007624639317297451,-0.0065580010631805675,0.026179938779914945,-27.594210627028318,55.203007525597705,-80.875
1772305822.7902822,0.006815384433882443,1.3468261572208609,-8.317816556375652,-0.2079715067586322,-1.522388939353076,9.684427644533097,-0.007624639317297451,-0.0065580010631805675,0.026179938779914945,-27.594210627028318,55.203007525597705,-80.875
1772305822.8481195,0.027664670288364966,1.348337644474346,-8.324548462785721,-0.21452431779974152,-1.4242951478582406,9.704245879488203,0.0032594616944840215,0.007641386891959961,-0.017453292519943295,-27.28107137149757,54.82854116309548,-81.5625
1772305822.8736289,0.027664670288364966,1.348337644474346,-8.324548462785721,-0.21452431779974152,-1.4242951478582406,9.704245879488203,0.0032594616944840215,0.007641386891959961,-0.017453292519943295,-27.28107137149757,54.82854116309548,-81.5625
1772305822.9019601,0.013629079449215997,1.3473112407716656,-8.331688845250756,-0.20215944419167173,-1.4263055039127723,9.709515808784456,0.0,0.0,-0.016362461737446838,-25.781073554054778,54.83110000401612,-80.5
1772305822.9292536,0.05591707631994775,1.3433761219087599,-8.338166101373822,-0.18047614829439232,-1.4711069367073646,9.7397837815207,-0.003253879169596518,-0.010913874477848157,0.04581489286485115,-25.781073554054778,54.83110000401612,-80.5
1772305822.9690297,0.08382444913752571,1.3454098518297497,-8.337839170550913,-0.16604615709303885,-1.5009217897673697,9.75992677926126,0.006533810122001386,0.0065561402215514,0.008726646259971648,-26.468572553716058,54.8299272019275,-80.5
1772305823.0922756,0.06987075941142964,1.344393006844535,-8.33800275984084,-0.1966928629332167,-1.457274688333807,9.763296384123617,-0.0010871075120377296,-0.0021835192322212987,-0.001090830782496456,-26.470491684406543,55.95492556500959,-80.5
1772305823.1404717,0.1187086998058165,1.347951788914429,-8.337429113483353,-0.2170879033237193,-1.4282280298998409,9.765538818518563,-0.006539392646888889,-0.0032836526356632032,0.031634092692397225,-26.470491684406543,55.95492556500959,-80.5
1772305823.2535863,0.13257624925200623,1.3490469002892043,-8.344750418923738,-0.23070622612258077,-1.3821369484640373,9.767031133558765,-0.004361455939555094,-0.0010982725618127367,-0.016362461737446838,-26.09474590144399,55.51806591181894,-80.875
1772305823.2715323,0.13257624925200623,1.3490469002892043,-8.344750418923738,-0.23070622612258077,-1.3821369484640373,9.767031133558765,-0.004361455939555094,-0.0010982725618127367,-0.016362461737446838,-26.09474590144399,55.51806591181894,-80.875
1772305823.3429453,0.2087334347080561,1.3616193614297651,-8.350817841156475,-0.17611502895872247,-1.4082222432100844,9.774714475962408,0.0021928234403671377,-0.006541253488518057,0.028361600344907856,-25.0935745543935,54.832272806104754,-78.875
1772305823.3769372,0.2087334347080561,1.3616193614297651,-8.350817841156475,-0.17611502895872247,-1.4082222432100844,9.774714475962408,0.0021928234403671377,-0.006541253488518057,0.028361600344907856,-25.0935745543935,54.832272806104754,-78.875
1772305823.4036644,0.21528522710949377,1.369102621120869,-8.34375609372518,-0.216665590332914,-1.4591640312060057,9.75306676084492,-0.0021760758657046273,-0.003276209269146532,-0.002181661564992912,-25.0935745543935,54.832272806104754,-78.875
1772305823.427697,0.21528522710949377,1.369102621120869,-8.34375609372518,-0.216665590332914,-1.4591640312060057,9.75306676084492,-0.0021760758657046273,-0.003276209269146532,-0.002181661564992912,-25.0935745543935,54.832272806104754,-78.875
1772305823.467316,0.20737493291943473,1.3825438718904257,-8.336861468656615,-0.2202243752559797,-1.4997154908996446,9.742005559962372,-0.008741520295401865,0.00871174682933518,0.0272707695624114,-23.969215901541567,55.20919139115593,-78.875
1772305823.5197642,0.2760454524969137,1.401581431062515,-8.34297956999904,-0.22594922651972957,-1.5200175270619807,9.72126400750747,0.005461589342996998,-0.004354012573038422,0.019634954084936207,-23.969215901541567,55.20919139115593,-78.875
1772305823.5599566,0.3310939639436055,1.412648910062156,-8.363212149815878,-0.22653377876701347,-1.463275355292458,9.720841182876333,0.0021853800738504663,-0.002177936707333795,0.020725784867432664,-25.096133395314144,56.332270623547544,-80.0625
1772305823.6003225,0.38750787711298235,1.4097404890491065,-8.355547921936056,-0.2302678985977587,-1.4255197802372448,9.73059513292953,-0.006526366755484714,-0.01091945700273566,0.02181661564992912,-25.096133395314144,56.332270623547544,-80.0625
1772305823.6762116,0.37924809081973154,1.4232137180960756,-8.376544526743967,-0.24273117009429204,-1.4338620544133929,9.737086277731171,0.003281791794034035,-0.005448563451592823,-0.032724923474893676,-24.660553162583813,57.4580153152315,-78.875
1772305823.7133703,0.3722710889660522,1.4227031610343515,-8.376632408602442,-0.25102533805137006,-1.439413744688311,9.748096285500463,0.0021742150240754592,0.004367038464442597,-0.006544984694978736,-24.660553162583813,57.4580153152315,-78.875
1772305823.7488387,0.3722710889660522,1.4227031610343515,-8.376632408602442,-0.25102533805137006,-1.439413744688311,9.748096285500463,0.0021742150240754592,0.004367038464442597,-0.006544984694978736,-24.660553162583813,57.4580153152315,-78.875
1772305823.7679422,0.3721832379553084,1.4227135237485935,-8.38360937960839,-0.2564137668411593,-1.5200457898710733,9.75542332268108,-0.004352151731409255,-0.006552418538293064,0.007635815477475192,-23.59730837995998,57.02232846412947,-78.5
1772305823.8065155,0.36588082628948954,1.408293082641882,-8.411624377296178,-0.233250264099264,-1.56696965029462,9.780370054320331,-0.013069481085631938,-0.012021451247806732,-0.017453292519943295,-23.59730837995998,57.02232846412947,-78.5
1772305823.8390307,0.3931110883313484,1.4174291668765122,-8.425731325332771,-0.23456074597808396,-1.5982254872616932,9.796971825553,-0.012008425356402556,0.00543367671855948,0.025089107997418487,-23.16055534514102,57.46057415615214,-79.25
1772305823.864815,0.4209311052134496,1.4194965923054754,-8.432357246866532,-0.23543856343521075,-1.6156807907726498,9.808020118854405,-0.011991677781740047,-0.004383786039105107,0.02181661564992912,-23.16055534514102,57.46057415615214,-79.25
1772305823.9020228,0.5185189863870246,1.4267097479204465,-8.438097644708675,-0.23614257566915658,-1.5570498566295352,9.751815512189898,1.67475746625103e-05,-0.009817462757664588,0.0719948316447661,-23.16055534514102,57.46057415615214,-79.25
1772305823.9509451,0.5881978258961202,1.4318745983796028,-8.444183713017708,-0.24991162562533834,-1.5648859462917566,9.791349543569611,-0.00546903270951367,0.008717329354222684,-0.008726646259971648,-23.59730837995998,57.02232846412947,-76.5
1772305823.9668543,0.5881978258961202,1.4318745983796028,-8.444183713017708,-0.24991162562533834,-1.5648859462917566,9.791349543569611,-0.00546903270951367,0.008717329354222684,-0.008726646259971648,-23.59730837995998,57.02232846412947,-76.5
1772305823.998449,0.5952640232541334,1.4323652565937774,-8.437117515659695,-0.1756924790094512,-1.426118522159427,9.750756765682354,0.009823045282552092,-0.003255740011225686,0.001090830782496456,-23.59730837995998,57.02232846412947,-76.5
1772305824.0293186,0.6785621071303195,1.4454790692614734,-8.42903392573398,-0.16639039044709622,-1.3639447899633135,9.777264512766536,-0.002168632499187956,-0.007639526050330793,0.05781403147231216,-21.349870494716438,58.52616454295323,-76.875
1772305824.056764,0.7407485170973979,1.4571074198672334,-8.435159997304346,-0.16019995441998677,-1.3225688657128958,9.781524675510843,-0.016384768028990995,0.013062037719115268,0.011999138607461015,-21.349870494716438,58.52616454295323,-76.875
1772305824.109534,0.8033550451034682,1.4618041750946842,-8.448286384801225,-0.19609032314257896,-1.3720395845146163,9.797740213057322,0.0022039884901421444,-0.01308622866029445,0.0272707695624114,-21.78619705604862,57.837919214690096,-76.5
1772305824.1507573,0.8033550451034682,1.4618041750946842,-8.448286384801225,-0.19609032314257896,-1.3720395845146163,9.797740213057322,0.0022039884901421444,-0.01308622866029445,0.0272707695624114,-21.78619705604862,57.837919214690096,-76.5
1772305824.191847,0.867081873816503,1.4525264844840715,-8.454511305112256,-0.21997496260577587,-1.4049617952530227,9.795151025325803,0.0076469694168474645,-0.006531949280372218,0.04363323129985824,-21.78619705604862,57.837919214690096,-76.5
1772305824.2464552,1.0196778568355434,1.4778442222401782,-8.445913267195833,-0.21306151359383474,-1.4034439205558928,9.710879604099132,0.0010964117201835689,-0.0032706267442590285,0.02181661564992912,-21.349870494716438,58.52616454295323,-76.0625
1772305824.2914333,1.0196778568355434,1.4778442222401782,-8.445913267195833,-0.21306151359383474,-1.4034439205558928,9.710879604099132,0.0010964117201835689,-0.0032706267442590285,0.02181661564992912,-21.349870494716438,58.52616454295323,-76.0625
1772305824.3395529,1.0685160917798526,1.481443773306708,-8.445252841145525,-0.21114139517200295,-1.4592778600447323,9.740691372068026,-0.008735937770514362,0.005439259243446984,0.013089969389957472,-22.099869403437832,58.52488512249291,-75.6875
1772305824.39744,1.14497554707935,1.4872701818149512,-8.465138978736396,-0.20901320463207737,-1.5211622003416,9.751448684031036,0.001094550878554401,-0.002179797548962963,0.04908738521234052,-20.974871040355737,58.52680425318339,-75.25
1772305824.4527197,1.2562787440203624,1.50236025332283,-8.449589643562053,-0.20901320463207737,-1.5211622003416,9.751448684031036,0.001094550878554401,-0.002179797548962963,0.04908738521234052,-20.974871040355737,58.52680425318339,-75.25
1772305824.5106645,1.3399006377443559,1.5085993188442632,-8.45540148390413,-0.20844729078052762,-1.5376180602427727,9.734238524503198,-1.8608416291678112e-06,0.0010908291952960653,0.011999138607461015,-20.974871040355737,58.52680425318339,-75.25
1772305824.5456982,1.4364427199672005,1.5298240372364225,-8.46085819751049,-0.20809921346306262,-1.5318437169827317,9.702714685343583,-0.009821184440922923,0.0021649108159296202,0.037088246604879506,-20.287905132552925,58.84047660057261,-74.875
1772305824.6018872,1.5479609902711695,1.531754127204959,-8.50869453373859,-0.21114420186685579,-1.5681479445332802,9.681735922527215,-0.013062037719115268,-0.01638476802899099,0.016362461737446838,-20.287905132552925,58.84047660057261,-74.875
1772305824.6312706,1.5479609902711695,1.531754127204959,-8.50869453373859,-0.21114420186685579,-1.5681479445332802,9.681735922527215,-0.013062037719115268,-0.01638476802899099,0.016362461737446838,-20.287905132552925,58.84047660057261,-74.875
1772305824.6648135,1.624598005903216,1.5375326902620563,-8.51456872634092,-0.21317060763483092,-1.5923080024233762,9.687845460464976,0.01418822290536552,-0.0043391258400050795,0.006544984694978736,-19.473060710594154,57.466864640082065,-73.25
1772305824.6924722,1.6729119953000122,1.5481308114570365,-8.513774598550512,-0.20448383751681992,-1.608369131846263,9.691911289714545,0.004365177622813429,-0.0010833858287793941,0.06544984694978735,-19.473060710594154,57.466864640082065,-73.25
1772305824.729007,1.7994064527658944,1.5437966031169035,-8.526602516711245,-0.19872000825830563,-1.60902231354246,9.694617053661844,-0.009796993499743742,-0.012015868722919229,0.015271630954950384,-19.100406860410715,58.842502349634785,-73.6875
1772305824.750491,1.7994064527658944,1.5437966031169035,-8.526602516711245,-0.19872000825830563,-1.60902231354246,9.694617053661844,-0.009796993499743742,-0.012015868722919229,0.015271630954950384,-19.100406860410715,58.842502349634785,-73.6875
1772305824.772299,1.8546960060023039,1.5549171644659587,-8.525686883268856,-0.19488424427295595,-1.6094569986647616,9.783390613733712,-0.0021649108159296202,-0.009821184440922923,0.002181661564992912,-19.100406860410715,58.842502349634785,-73.6875
1772305824.8040237,1.8546960060023039,1.5549171644659587,-8.525686883268856,-0.19488424427295595,-1.6094569986647616,9.783390613733712,-0.0021649108159296202,-0.009821184440922923,0.002181661564992912,-19.100406860410715,58.842502349634785,-73.6875
1772305824.8349867,1.9801601469805135,1.5707882680501273,-8.495818134264077,-0.2358122687038887,-1.613165566873537,9.842468426295897,0.013099254551698624,-0.005431815876930313,0.019634954084936207,-19.099873768552246,58.5300028043342,-72.0625
1772305824.8616474,2.0784443712112606,1.5709295597985764,-8.487491569827673,-0.21956302284597917,-1.615559394313475,9.888474274028262,0.0054653110262553335,-0.006535670963630553,0.05672320068981571,-19.099873768552246,58.5300028043342,-72.0625
1772305824.892788,2.0784443712112606,1.5709295597985764,-8.487491569827673,-0.21956302284597917,-1.615559394313475,9.888474274028262,0.0054653110262553335,-0.006535670963630553,0.05672320068981571,-19.099873768552246,58.5300028043342,-72.0625
1772305824.9260216,2.1541469417653176,1.5905484931582323,-8.486101203259327,-0.20889199138885706,-1.5335247887325925,9.895674869823923,-0.010939926260656506,0.018525487903741436,0.038179077387375956,-18.787907315110132,58.84303544149325,-71.25
1772305824.99343,2.2351822505174903,1.6319534379057838,-8.498676368538476,-0.19515168312959058,-1.4488143007329874,9.913847232719288,-0.01311972380961947,0.017430937025187034,0.04145156973486533,-18.787907315110132,58.84303544149325,-71.25
1772305825.0119,2.2974492963335122,1.6435721296144103,-8.497566109746582,-0.1860647255304878,-1.3589893488468614,9.845658056251894,0.0010889683536668975,0.0010926900369252332,0.05345070834232634,-18.101048025679013,59.21920769794258,-72.0625
1772305825.0414681,2.374072392067855,1.6493794625889027,-8.503327917620055,-0.18670767043636097,-1.2992232595887312,9.83038492640173,5.582524887503434e-06,-0.003272487585888196,0.0272707695624114,-18.101048025679013,59.21920769794258,-72.0625
1772305825.1120455,2.4922782655988187,1.6652401413081632,-8.50181484164262,-0.2136909672001889,-1.3799190923068725,9.790114823732608,-0.0021649108159296202,-0.009821184440922923,0.04254240051736178,-16.16429717341726,59.6600122308859,-70.875
1772305825.168625,2.5903418298034544,1.665636371324008,-8.507357472182884,-0.20488719505290726,-1.4335756163027689,9.763315520252831,0.0021816583905921306,3.7216832583356223e-06,0.026179938779914945,-16.16429717341726,59.6600122308859,-70.875
1772305825.2122188,2.659693547388685,1.6776235383395814,-8.499103695569106,-0.22580065056553192,-1.4626388712057938,9.705339542667042,0.004378203514217604,-0.008719190195851852,0.04799655442984406,-16.601796536838076,59.65926590228404,-70.0625
1772305825.2503173,2.721993325109517,1.6895040416227634,-8.505417152435124,-0.25644385579084966,-1.4820086747149968,9.666757177217804,-0.009804436866260414,-0.007652551941734968,0.01090830782496456,-16.601796536838076,59.65926590228404,-70.0625
1772305825.2868328,2.7851748525691438,1.6873319446838655,-8.511513431716171,-0.2768194473438256,-1.5049343830956514,9.641081044004597,0.003261322536113189,0.006550557696663896,0.028361600344907856,-16.976049662596917,59.22112682863306,-69.25
1772305825.3175468,2.896379145227003,1.7024021555664857,-8.502529294082944,-0.25020936180233905,-1.536848243256539,9.721002103684672,0.00981560191603542,0.0011075767699585757,0.06435901616729091,-16.976049662596917,59.22112682863306,-69.25
1772305825.3746614,2.993447688983961,1.7170470931306892,-8.515192846163139,-0.23251776634605387,-1.5480512401722697,9.710631553685959,-0.013082506977036114,-0.004385646880734275,0.05126904677733343,-16.162911134585244,58.84751341310438,-69.0
1772305825.430613,3.014373348175153,1.718596197243297,-8.514839623751499,-0.23746974139823784,-1.5555352415030828,9.703730068508449,0.007635804367072458,1.3025891404174678e-05,-0.014180800172453928,-16.162911134585244,58.84751341310438,-69.0
1772305825.4840245,3.16718684578131,1.7371023488928872,-8.519027829616432,-0.24077663828990817,-1.5538255471068574,9.682411648680862,1.3025891404174678e-05,-0.007635804367072458,-0.001090830782496456,-15.476051845154126,59.22368566955371,-69.6875
1772305825.5360096,3.2452434901990648,1.7287748737820106,-8.511616887098256,-0.2296996291752888,-1.492453015840475,9.661534255013317,0.005461589342996998,-0.004354012573038422,0.0545415391248228,-15.476051845154126,59.22368566955371,-69.6875
1772305825.5672457,3.2870926341407625,1.7318699502163097,-8.510898818005053,-0.22232800334780908,-1.4516102818587926,9.654330806157972,0.015286495467178259,-0.008700581779560174,0.022907446432425576,-15.476051845154126,59.22368566955371,-69.6875
1772305825.588727,3.2870926341407625,1.7318699502163097,-8.510898818005053,-0.22232800334780908,-1.4516102818587926,9.654330806157972,0.015286495467178259,-0.008700581779560174,0.022907446432425576,-15.476051845154126,59.22368566955371,-69.6875
1772305825.6099432,3.335915651729233,1.7354801262288382,-8.510058230284912,-0.210771999866666,-1.4010027379452081,9.639501656290578,-0.003263183377742357,-0.00545972850136783,0.028361600344907856,-13.975414317481171,58.851245056113655,-68.0625
1772305825.6489472,3.335915651729233,1.7354801262288382,-8.510058230284912,-0.210771999866666,-1.4010027379452081,9.639501656290578,-0.003263183377742357,-0.00545972850136783,0.028361600344907856,-13.975414317481171,58.851245056113655,-68.0625
1772305825.6819947,3.412514356065563,1.7413454498587893,-8.515705493570211,-0.20303595739247143,-1.394084837514459,9.629633022706285,0.007641386891959962,-0.0032594616944840215,0.04363323129985824,-13.975414317481171,58.851245056113655,-68.0625
1772305825.7133303,3.509420295617793,1.7686041032396569,-8.479048752806879,-0.22125283989317787,-1.3686538856291237,9.568553766797768,0.0010926900369252332,-0.0010889683536668975,0.011999138607461015,-13.600414863120474,58.851884766343815,-67.6875
1772305825.7834933,3.572829365658288,1.766050759679489,-8.471167737015856,-0.23664044673817564,-1.4495401462262218,9.592453329910635,0.010917596161106493,-0.005435537560188649,0.04908738521234052,-13.287382225961425,58.539918312901705,-67.6875
1772305825.8251011,3.572829365658288,1.766050759679489,-8.471167737015856,-0.23664044673817564,-1.4495401462262218,9.592453329910635,0.010917596161106493,-0.005435537560188649,0.04908738521234052,-13.287382225961425,58.539918312901705,-67.6875
1772305825.8571982,3.705591653695754,1.7753719382259596,-8.454867949755664,-0.24353562036263612,-1.5033633426890423,9.608358222186634,0.007645108575218297,-0.005441120085076152,0.04690572364734761,-13.287382225961425,58.539918312901705,-67.6875
1772305825.9143562,3.7743995492174287,1.7947722874438692,-8.460676667593647,-0.24151395738686413,-1.4923391701181619,9.618942750327024,-0.002177936707333795,-0.0021853800738504663,0.020725784867432664,-12.475416500038378,58.853803897034304,-65.375
1772305825.9323123,3.8309581916852578,1.791459563277359,-8.445938905802993,-0.24685877694005157,-1.4850141192319453,9.699579093128552,0.012006564514773388,-0.004342847523263416,0.04908738521234052,-12.475416500038378,58.853803897034304,-65.375
1772305825.950023,3.9070362900952142,1.8042754996960113,-8.451301350699191,-0.24364559128564847,-1.52695946264248,9.753241678496,-0.010908291952960654,-1.860841629167811e-05,0.05345070834232634,-12.475416500038378,58.853803897034304,-65.375
1772305825.9910796,3.9563380763806735,1.8014644958840944,-8.465097876213878,-0.2481974658063873,-1.5548850329336315,9.715361072046653,0.008741520295401865,-0.00871174682933518,0.017453292519943295,-12.101803084509697,59.666942425045974,-65.75
1772305826.0532594,3.9789234420497177,1.7818609737822573,-8.458426982028097,-0.24458212501857146,-1.5466969204812708,9.690151951608714,0.008750824503547704,-0.014165892805815507,0.031634092692397225,-12.101803084509697,59.666942425045974,-65.75
1772305826.105215,4.08494085835297,1.7688595332464878,-8.464208826454678,-0.2655919039906627,-1.5412877679521313,9.673375563561592,-0.013065759402373603,-0.014203109638398864,0.015271630954950384,-9.974887045775256,58.54556908660146,-67.0
1772305826.150723,4.170272336889077,1.754457899291726,-8.470902499271892,-0.232725062223779,-1.5476434682069504,9.699007293501278,-0.0076283610005557865,-0.004376342672588436,0.013089969389957472,-9.974887045775256,58.54556908660146,-67.0
1772305826.2038636,4.268402284847597,1.760646155685783,-8.441251686191166,-0.24095850773508543,-1.5519244733810336,9.726100258572913,0.010917596161106493,-0.005435537560188649,0.0272707695624114,-10.661746335206375,58.16939683015213,-65.75
1772305826.2236688,4.346254091596213,1.752069952295821,-8.433391609685719,-0.2163888762468974,-1.5212710084495569,9.734094989057878,0.008721051037481019,0.003287374318921539,0.05890486225480862,-10.661746335206375,58.16939683015213,-65.75
1772305826.2609022,4.346254091596213,1.752069952295821,-8.433391609685719,-0.2163888762468974,-1.5212710084495569,9.734094989057878,0.008721051037481019,0.003287374318921539,0.05890486225480862,-10.661746335206375,58.16939683015213,-65.75
1772305826.299729,4.366536737502255,1.7608211080338703,-8.439735209053513,-0.23017826094764723,-1.4808521865712982,9.726034946059354,0.005431815876930313,0.013099254551698624,0.02399827721492203,-9.162921319852211,58.85945467073406,-64.5625
1772305826.3606927,4.464412557262311,1.774028399398436,-8.410320780239946,-0.24266581083364713,-1.474030259565281,9.720671077480416,0.017455127966366214,-0.0010610557292293804,0.004363323129985824,-9.162921319852211,58.85945467073406,-64.5625
1772305826.3903177,4.562158551179011,1.7749649783411174,-8.429711492126739,-0.27760003676860884,-1.5498185587565083,9.757242823347303,-0.019638647198587513,0.0021481632412671103,-0.004363323129985824,-9.599887591414559,58.54620879683162,-64.0625
1772305826.40583,4.562158551179011,1.7749649783411174,-8.429711492126739,-0.27760003676860884,-1.5498185587565083,9.757242823347303,-0.019638647198587513,0.0021481632412671103,-0.004363323129985824,-9.599887591414559,58.54620879683162,-64.0625
1772305826.424363,4.660678918198272,1.7749844067750222,-8.42171962229589,-0.32196530388949984,-1.5903427122383222,9.787742302483426,-0.004370760147700933,0.00435587341466759,0.011999138607461015,-9.599887591414559,58.54620879683162,-64.0625
1772305826.4491234,4.660678918198272,1.7749844067750222,-8.42171962229589,-0.32196530388949984,-1.5903427122383222,9.787742302483426,-0.004370760147700933,0.00435587341466759,0.011999138607461015,-9.599887591414559,58.54620879683162,-64.0625
1772305826.4658859,4.703022782025044,1.7710677968494961,-8.421220152928866,-0.3005580286999184,-1.4565713902200943,9.75504641044966,-0.004344708364892583,-0.010915735319477324,0.04036073895236887,-8.099889773971766,58.54876763775227,-64.0625
1772305826.4834685,4.7034037591849405,1.7643710885600843,-8.428464922378067,-0.28631172619618456,-1.3675480697405429,9.733287659538234,-0.01743093702518703,-0.01311972380961947,-0.013089969389957472,-8.099889773971766,58.54876763775227,-64.0625
1772305826.5032651,4.7034037591849405,1.7643710885600843,-8.428464922378067,-0.28631172619618456,-1.3675480697405429,9.733287659538234,-0.01743093702518703,-0.01311972380961947,-0.013089969389957472,-8.099889773971766,58.54876763775227,-64.0625
1772305826.5257864,4.703675021155428,1.7586191883117608,-8.457137183702475,-0.27674537493436796,-1.358480647017865,9.718807453867853,-0.00870244262118934,-0.014195666271882193,0.017453292519943295,-8.099889773971766,58.54876763775227,-64.0625
1772305826.5405455,4.7541416280626985,1.7410130948465932,-8.450095859136463,-0.26009837906261496,-1.4962688533905635,9.71251615045603,0.010941787102285674,-0.019616317099037498,0.02399827721492203,-8.099889773971766,58.54876763775227,-62.5625
1772305826.5592027,4.802946463473591,1.7445862024783338,-8.44920623117185,-0.24926536471908858,-1.4441257714141431,9.715019581728566,-0.0010796641455210585,-0.00654683601340556,0.05235987755982989,-8.099889773971766,58.54876763775227,-62.5625
1772305826.5777056,4.802946463473591,1.7445862024783338,-8.44920623117185,-0.24926536471908858,-1.4441257714141431,9.715019581728566,-0.0010796641455210585,-0.00654683601340556,0.05235987755982989,-8.099889773971766,58.54876763775227,-62.5625
1772305826.6039824,4.888646352562494,1.728669449694791,-8.420638626021647,-0.24187921610594082,-1.5131234448769089,9.740101369226513,0.013112280443102798,-0.013067620244002771,0.04145156973486533,-8.099889773971766,58.54876763775227,-62.5625
1772305826.6395128,4.965623422285185,1.7285752180573601,-8.447925900383419,-0.23714642169862138,-1.4519972069301281,9.733377236673238,-0.0010796641455210585,-0.00654683601340556,0.03381575425739013,-7.349890865250369,58.55004705821259,-62.5625
1772305826.6572921,4.993509497365517,1.7306157368009676,-8.447417200808921,-0.2440435332211185,-1.4046452839386971,9.722212178157877,-0.0021853800738504663,0.002177936707333795,0.014180800172453928,-7.349890865250369,58.55004705821259,-62.5625
1772305826.6789596,5.0004809308102605,1.7311258210070744,-8.447289872283502,-0.231907949693285,-1.373104576114469,9.701401509608502,0.006550557696663896,-0.0032613225361131895,0.014180800172453928,-7.349890865250369,58.55004705821259,-62.5625
1772305826.6948988,5.0004809308102605,1.7311258210070744,-8.447289872283502,-0.231907949693285,-1.373104576114469,9.701401509608502,0.006550557696663896,-0.0032613225361131895,0.014180800172453928,-7.349890865250369,58.55004705821259,-62.5625
1772305826.7366662,5.0772035616939775,1.7374538732640503,-8.460338136045976,-0.22495512178629484,-1.4440109004373247,9.667169577029881,-0.015260443684369908,-0.006571026954584742,0.0272707695624114,-7.349251155020208,58.175047603851894,-62.5625
1772305826.7849941,5.160770628490315,1.7446113257550984,-8.480220787468143,-0.22909177908393907,-1.4862918512104089,9.638010379765408,-0.01636243792944098,-2.7912624437517163e-05,0.00545415391248228,-6.974891410889671,58.55068676844275,-61.0
1772305826.851666,5.258999855475857,1.7387595574463928,-8.499933082365327,-0.21844713172837277,-1.5244418465376364,9.60856992459352,0.0032780701107756995,-0.003266905061000693,0.016362461737446838,-6.974891410889671,58.55068676844275,-61.0
1772305826.8765168,5.258999855475857,1.7387595574463928,-8.499933082365327,-0.21844713172837277,-1.5244418465376364,9.60856992459352,0.0032780701107756995,-0.003266905061000693,0.016362461737446838,-6.974891410889671,58.55068676844275,-61.0
1772305826.9128003,5.3570244655906345,1.745756993752309,-8.491662036104817,-0.24806240416350664,-1.6067598290094103,9.58897763054806,2.2330099550013735e-05,-0.013089950343552785,0.06763150851478027,-5.849253337577415,58.177606444772536,-61.375
1772305826.982353,5.428905349232863,1.7226957186305725,-8.484655652339805,-0.18079825930340745,-1.6613931602410994,9.626115853330862,-0.004337264998375912,-0.015279052100661586,0.050178215994836975,-5.849253337577415,58.177606444772536,-61.375
1772305827.054662,5.520729693060005,1.7158669019646577,-8.491101688910748,-0.21647706581283396,-1.6042249940995037,9.650830925731686,0.004365177622813429,-0.0010833858287793941,0.06326818538479445,-5.474253883216717,58.1782461550027,-61.0
1772305827.09638,5.661091571223706,1.718940263254253,-8.48238536387086,-0.2336220017993874,-1.5126470958900349,9.640517636670431,0.007650691100105801,-0.008713607670964348,0.015271630954950384,-5.474253883216717,58.1782461550027,-61.0
1772305827.124071,5.688839495572725,1.7213185419998465,-8.488835583476162,-0.25172197885706327,-1.4517144404354134,9.633654258007153,0.0010926900369252332,-0.0010889683536668975,-0.013089969389957472,-4.348082718045992,57.492666286031906,-59.0
1772305827.138853,5.758486542659837,1.7331962801935652,-8.48073883986873,-0.2570428592839629,-1.4312236671214214,9.639122091297663,-0.0010964117201835689,0.0032706267442590285,0.05672320068981571,-4.348082718045992,57.492666286031906,-59.0
1772305827.1757367,5.758486542659837,1.7331962801935652,-8.48073883986873,-0.2570428592839629,-1.4312236671214214,9.639122091297663,-0.0010964117201835689,0.0032706267442590285,0.05672320068981571,-4.348082718045992,57.492666286031906,-59.0
1772305827.2283654,5.912333167300216,1.743056039694557,-8.449968187145824,-0.3007963836877486,-1.4085770058236025,9.728786594726346,-0.0054411200850761525,-0.007645108575218297,-0.003272492347489368,-3.2862239742541752,57.869478252711396,-59.0
1772305827.278094,5.968166192416961,1.7479598784214054,-8.463355954147387,-0.29628311947140745,-1.4660846290366387,9.77267894454016,-0.006541253488518057,-0.0021928234403671377,0.05235987755982989,-3.2862239742541752,57.869478252711396,-59.0
1772305827.3103287,6.0033868762876095,1.7438953056984936,-8.47001155499174,-0.2765540583516258,-1.5043267778536014,9.75505724912911,1.8608416291678112e-06,-0.0010908291952960653,0.002181661564992912,-2.9737244289535933,57.87001134456986,-59.375
1772305827.3371685,6.072914903965413,1.75609554106688,-8.468836388802595,-0.2634245885644642,-1.529776500698497,9.74333020768029,0.007635804367072458,1.3025891404174678e-05,0.025089107997418487,-2.9737244289535933,57.87001134456986,-59.375
1772305827.3505802,6.072914903965413,1.75609554106688,-8.468836388802595,-0.2634245885644642,-1.529776500698497,9.74333020768029,0.007635804367072458,1.3025891404174678e-05,0.025089107997418487,-2.9737244289535933,57.87001134456986,-59.375
1772305827.3879876,6.14246332935536,1.7615553354251456,-8.474464176236186,-0.25476696276829003,-1.4998815111989834,9.76228688625429,-0.010906431111331485,-0.0011094376115877436,0.04254240051736178,-2.9737244289535933,57.87001134456986,-59.0
1772305827.410963,6.1709387034248815,1.7574891623201527,-8.48873475731835,-0.24231519583284455,-1.4799753168243432,9.774902344085316,-0.011993538623369214,-0.0032929568438090423,0.017453292519943295,-2.9737244289535933,57.87001134456986,-59.0
1772305827.4337997,6.2893838726893785,1.7729076606046876,-8.47961717005383,-0.23402868403265614,-1.4667279668347815,9.783297790347964,0.012012147039660892,-0.007615335109151612,0.06326818538479445,-1.7848401179793658,57.05953827585053,-59.0
1772305827.4510958,6.2893838726893785,1.7729076606046876,-8.47961717005383,-0.23402868403265614,-1.4667279668347815,9.783297790347964,0.012012147039660892,-0.007615335109151612,0.06326818538479445,-1.7848401179793658,57.05953827585053,-59.0
1772305827.4650145,6.2893838726893785,1.7729076606046876,-8.47961717005383,-0.2854151577118388,-1.4379383712578342,9.869167547028143,-0.0076190567924099475,-0.009830488649068762,0.00545415391248228,-1.7848401179793658,57.05953827585053,-59.0
1772305827.484552,6.337647418481987,1.7834445376947687,-8.478293723066255,-0.31958374989174265,-1.4355047512025019,9.926312910870768,0.0021853800738504663,-0.002177936707333795,0.05126904677733343,-1.7848401179793658,57.05953827585053,-59.0
1772305827.4999855,6.337647418481987,1.7834445376947687,-8.478293723066255,-0.31958374989174265,-1.4355047512025019,9.926312910870768,0.0021853800738504663,-0.002177936707333795,0.05126904677733343,-1.7848401179793658,57.05953827585053,-59.0
1772305827.5191624,6.337647418481987,1.7834445376947687,-8.478293723066255,-0.31958374989174265,-1.4355047512025019,9.926312910870768,0.0021853800738504663,-0.002177936707333795,0.05126904677733343,-1.7848401179793658,57.05953827585053,-59.0
1772305827.5437784,6.422279385088207,1.782362738733587,-8.470569881269816,-0.3189353504479742,-1.417119725200027,9.964342512152495,-0.002177936707333795,-0.0021853800738504663,0.011999138607461015,-2.1617587030305483,58.18389692870246,-57.375
1772305827.5860977,6.512481778322179,1.7955686845119954,-8.461435965898758,-0.27498892691146776,-1.421536046694268,9.926093664547933,0.013091811185181953,-0.0010684990957460516,0.02945243112740431,-2.1617587030305483,58.18389692870246,-57.375
1772305827.6098406,6.596100282337744,1.8083899890872726,-8.452929689586433,-0.2823566432161925,-1.5315812486608311,9.90063948373472,0.0010926900369252332,-0.0010889683536668975,0.05345070834232634,-2.5961661336722495,56.37065323735723,-57.375
1772305827.624243,6.596100282337744,1.8083899890872726,-8.452929689586433,-0.2823566432161925,-1.5315812486608311,9.90063948373472,0.0010926900369252332,-0.0010889683536668975,0.05345070834232634,-2.5961661336722495,56.37065323735723,-57.375
1772305827.6376445,6.596747619673729,1.8010392408289915,-8.446350098528915,-0.28725977611420306,-1.604815101284127,9.883700010745358,0.0065673052713264065,-0.013078785293777779,-0.00545415391248228,-2.5961661336722495,56.37065323735723,-57.375
1772305827.6565886,6.639195615623103,1.79673348252855,-8.438939994363073,-0.2905912331560123,-1.6134101300485424,9.872426980697249,0.003266905061000693,0.0032780701107757,0.04908738521234052,-2.5961661336722495,56.37065323735723,-57.375
1772305827.6719644,6.639195615623103,1.79673348252855,-8.438939994363073,-0.2905912331560123,-1.6134101300485424,9.872426980697249,0.003266905061000693,0.0032780701107757,0.04908738521234052,-2.5961661336722495,56.37065323735723,-57.375
1772305827.701522,6.716222059534476,1.802453546344584,-8.437919147500986,-0.2762710577941095,-1.508712967927638,9.844854234884313,0.008739659453772697,-0.007620917634039115,0.03490658503988659,-0.7842018627873425,56.68624471543693,-57.0
1772305827.7271178,6.716222059534476,1.802453546344584,-8.437919147500986,-0.2762710577941095,-1.508712967927638,9.844854234884313,0.008739659453772697,-0.007620917634039115,0.03490658503988659,-0.7842018627873425,56.68624471543693,-57.0
1772305827.754406,6.828084490560768,1.810707874559669,-8.43618987437962,-0.26673543465178956,-1.4423832829201633,9.766292869821807,-0.003274348427517364,0.001085246670408562,0.009817477042468103,-0.7842018627873425,56.68624471543693,-57.0
1772305827.7776384,6.883306691980386,1.8217259043207452,-8.434660809461668,-0.2603895839704657,-1.3982416184988198,9.687250265302104,-0.008724772720739354,-0.0011057159283294079,0.04036073895236887,-0.3461694075080601,56.374491498738195,-56.1875
1772305827.8064778,-3.158615811364144,1.829731376955514,-8.428655040413394,-0.1992996749489188,-1.36876882502228,9.63130318325067,-0.005452285134851159,-0.0011001334034419043,0.01090830782496456,-0.3461694075080601,56.374491498738195,-56.1875
1772305827.85972,-3.158615811364144,1.829731376955514,-8.428655040413394,-0.1992996749489188,-1.36876882502228,9.63130318325067,-0.005452285134851159,-0.0011001334034419043,0.01090830782496456,-0.3461694075080601,56.374491498738195,-56.1875
1772305827.8949478,-2.8654390255632305,1.8438925649965436,-8.445272868302311,-0.15869067416058819,-1.322394155475884,9.594071025115298,-0.00763394352544329,-0.00110385508670024,0.018544123302439753,1.092714539706633,55.56444490350564,-56.5625
1772305827.9357867,-2.753646331507831,1.8520740334116252,-8.44316406420663,-0.18518754720908467,-1.291623633424782,9.646231009055011,0.004359595097925926,0.002189101757108802,0.05235987755982989,1.092714539706633,55.56444490350564,-56.5625
1772305827.9758978,-2.6279837036332756,1.8615603949180606,-8.434379045670005,-0.21611004510058807,-1.3246907297931507,9.697668454238288,0.0021928234403671377,-0.006541253488518057,0.025089107997418487,0.6552151762858183,55.56369857490378,-55.0
1772305828.0104945,-2.5368122997753932,1.8608668642848303,-8.446325081286998,-0.2365859067157989,-1.4069084361636077,9.71517394087725,-0.0010684990957460516,-0.013091811185181953,0.05235987755982989,0.6552151762858183,55.56369857490378,-55.0
1772305828.0320406,-2.5368122997753932,1.8608668642848303,-8.446325081286998,-0.2365859067157989,-1.4069084361636077,9.71517394087725,-0.0010684990957460516,-0.013091811185181953,0.05235987755982989,0.6552151762858183,55.56369857490378,-55.0
1772305828.0498788,-2.515885312766745,1.8624191343601983,-8.446020457128654,-0.26359279125057755,-1.4616462269444437,9.649886077418035,1.1165049775006867e-05,-0.006544975171776392,0.01090830782496456,2.1544666651267566,56.00375677924524,-55.5
1772305828.0746503,-2.460079080067616,1.8665580360748801,-8.445205339903294,-0.28155986481599116,-1.501418722087957,9.606437733599149,0.009830488649068762,-0.0076190567924099475,0.039269908169872414,2.1544666651267566,56.00375677924524,-55.5
1772305828.096162,-2.460079080067616,1.8665580360748801,-8.445205339903294,-0.28155986481599116,-1.501418722087957,9.606437733599149,0.009830488649068762,-0.0076190567924099475,0.039269908169872414,2.1544666651267566,56.00375677924524,-55.5
1772305828.1292386,-2.0118958064302292,1.878618452806098,-8.437610802849115,-0.2568746492847892,-1.437506218172665,9.634390245161912,0.005444841768334488,0.005463450184626166,0.039269908169872414,2.593885159238055,54.879504744765,-55.5
1772305828.160874,-1.8857969491068622,1.8809399197202588,-8.435582887004998,-0.2404469141006998,-1.394973160766487,9.652992329356916,0.00546903270951367,-0.008717329354222684,0.026179938779914945,2.593885159238055,54.879504744765,-55.5
1772305828.187164,-1.8857969491068622,1.8809399197202588,-8.435582887004998,-0.2404469141006998,-1.394973160766487,9.652992329356916,0.00546903270951367,-0.008717329354222684,0.026179938779914945,2.593885159238055,54.879504744765,-55.5
1772305828.2174294,-1.4854021417211278,1.8753695568376407,-8.428418971138688,-0.2529587197549637,-1.349982296828484,9.665371808589796,0.0010964117201835689,-0.0032706267442590285,0.03490658503988659,2.592712357149426,55.56700374442628,-55.0
1772305828.2700832,-1.2537225784323314,1.8711610795364395,-8.438017346339992,-0.2613365443041743,-1.2899354178981353,9.663574878609476,-0.009802576024631245,-0.008743381137031034,0.006544984694978736,2.592712357149426,55.56700374442628,-55.0
1772305828.302158,-1.2537225784323314,1.8711610795364395,-8.438017346339992,-0.2613365443041743,-1.2899354178981353,9.663574878609476,-0.009802576024631245,-0.008743381137031034,0.006544984694978736,2.592712357149426,55.56700374442628,-55.0
1772305828.3733566,-0.49553564436772707,1.8568244804026999,-8.460442222956676,-0.18705365407952304,-1.2232390469734875,9.583585779192628,-0.022905552259588204,-0.0011299068695085894,-0.00545415391248228,3.6563836132600334,54.88131725708379,-55.0
1772305828.3999603,-0.35494726655862124,1.8532021246835333,-8.45814958903616,-0.18712612229450526,-1.349377437404513,9.639253195021345,2.2330099550013735e-05,-0.013089950343552785,0.02181661564992912,3.6563836132600334,54.88131725708379,-55.0
1772305828.4749708,-0.04071399787812099,1.8764492386390534,-8.439142911394123,-0.230729214872525,-1.3932540283731432,9.71309546719009,0.006552418538293064,-0.004352151731409255,0.06326818538479445,3.2825569609879643,54.19317854719235,-53.5
1772305828.5067108,0.38741049877192807,1.8729571138209948,-8.43911676839668,-0.24636615854452124,-1.4224305839058748,9.76223667444616,0.0022095710150296477,-0.016358716246182643,0.022907446432425576,3.2825569609879643,54.19317854719235,-53.5
1772305828.5674706,0.571411310563614,1.8514516628892492,-8.436197958589686,-0.25684655315770905,-1.3983608667687215,9.75814337015131,-0.0010982725618127365,0.004361455939555094,-0.001090830782496456,3.6575564153486626,54.193818257422514,-52.5625
1772305828.6041698,0.6698476489258466,1.8516176863015499,-8.42065396259738,-0.2370602839786725,-1.382297087643793,9.755419321868292,0.009819323599293757,-0.0010740816206335551,0.0545415391248228,3.6575564153486626,54.193818257422514,-52.5625
1772305828.6385107,1.0690121163759392,1.8599558036793997,-8.421108857218954,-0.22381855959155228,-1.4150932110010292,9.803783173775347,0.00546903270951367,-0.008717329354222684,0.04581489286485115,4.783301107032613,53.75823802469218,-52.5625
1772305828.65732,1.0690121163759392,1.8599558036793997,-8.421108857218954,-0.22381855959155228,-1.4150932110010292,9.803783173775347,0.00546903270951367,-0.008717329354222684,0.04581489286485115,4.783301107032613,53.75823802469218,-52.5625
1772305828.6789203,1.2373832759133339,1.8583640133341568,-8.425367608501267,-0.25180251517227437,-1.4369814352025196,9.835968776959866,0.001094550878554401,-0.002179797548962963,-0.02399827721492203,4.783301107032613,53.75823802469218,-52.5625
1772305828.6990354,1.3083016532431795,1.849475795151754,-8.417334957439232,-0.2704768826623034,-1.421441842340638,9.84735260122046,0.005457867659738662,-0.0021723541824462916,0.05126904677733343,4.783301107032613,53.75823802469218,-52.5625
1772305828.7365878,1.3083016532431795,1.849475795151754,-8.417334957439232,-0.2704768826623034,-1.421441842340638,9.84735260122046,0.005457867659738662,-0.0021723541824462916,0.05126904677733343,4.783301107032613,53.75823802469218,-52.5625
1772305828.7653883,1.4206823678540763,1.844053224265736,-8.43702783056804,-0.242768889945727,-1.4076868331698613,9.84154796227096,-0.01418822290536552,0.0043391258400050795,0.04254240051736178,5.907553141512852,54.197656518803484,-53.75
1772305828.7899766,1.4425241602159427,1.8317181684373,-8.443797551322806,-0.22434664952884623,-1.3884977077000669,9.770782805745746,-0.006526366755484714,-0.01091945700273566,0.002181661564992912,5.907553141512852,54.197656518803484,-53.75
1772305828.8236399,1.9343793597642485,1.8191394733511626,-8.450604816653032,-0.21208685432132146,-1.3757275590564952,9.72368938457681,0.007658134466622472,-0.01307692445214861,0.05345070834232634,5.910111982433498,52.69765870136069,-53.0
1772305828.8401606,2.3833327328506484,1.8174855265065075,-8.457979248159766,-0.24406937964225092,-1.3672976446558724,9.682313903734908,-0.005439259243446984,-0.008735937770514362,0.004363323129985824,5.910111982433498,52.69765870136069,-53.0
1772305828.8618913,2.452717185099815,1.8297131502149264,-8.457145002147636,-0.19852543944960738,-1.3180871137535888,9.668159430258305,-0.00544298092670532,-0.006554279379922231,0.06763150851478027,5.910111982433498,52.69765870136069,-53.0
1772305828.8816893,2.452717185099815,1.8297131502149264,-8.457145002147636,-0.19852543944960738,-1.3180871137535888,9.668159430258305,-0.00544298092670532,-0.006554279379922231,0.06763150851478027,5.910111982433498,52.69765870136069,-53.0
1772305828.9070175,2.930082108073908,1.8231982770323545,-8.464153210267616,-0.20166752441109312,-1.285395119213907,9.665430009690093,-0.001074081620633555,-0.009819323599293757,0.0272707695624114,6.5976109820947775,52.69883150344932,-53.0
1772305828.9221694,2.971297942744243,1.8334156159076964,-8.470218386310993,-0.19697703068044242,-1.3171492586704971,9.676994057620853,5.582524887503434e-06,-0.003272487585888196,0.044724062082354694,6.5976109820947775,52.69883150344932,-53.0
1772305828.940272,3.0203760466819487,1.8366703457699127,-8.455394008912595,-0.2003688745988208,-1.441991008615188,9.694725137461852,0.010912013636218989,-0.0021630499743004526,0.039269908169872414,6.5976109820947775,52.69883150344932,-53.0
1772305828.9603062,3.0203760466819487,1.8366703457699127,-8.455394008912595,-0.2003688745988208,-1.441991008615188,9.694725137461852,0.010912013636218989,-0.0021630499743004526,0.039269908169872414,6.5976109820947775,52.69883150344932,-53.0
1772305828.975802,3.335908736747441,1.8456503328581024,-8.437158689434238,-0.19945790057729842,-1.4213677801821603,9.696489637904937,-0.0054653110262553335,0.006535670963630553,0.009817477042468103,6.160111618673963,52.69808517484746,-52.25
1772305828.999944,3.700346781761438,1.8514191044283188,-8.431619706085069,-0.21874540000231724,-1.5113758025131026,9.76122101567812,0.002189101757108802,-0.004359595097925926,0.07417649320975901,6.160111618673963,52.69808517484746,-52.25
1772305829.0238473,3.700346781761438,1.8514191044283188,-8.431619706085069,-0.21874540000231724,-1.5113758025131026,9.76122101567812,0.002189101757108802,-0.004359595097925926,0.07417649320975901,6.160111618673963,52.69808517484746,-52.25
1772305829.0419123,3.7771961943311547,1.856815684117096,-8.423224073738771,-0.2517829037882263,-1.4943719170324898,9.75746746058683,0.0010908291952960653,1.8608416291678112e-06,0.03381575425739013,6.598357310696633,52.2613321400285,-52.5625
1772305829.0593045,3.7771961943311547,1.856815684117096,-8.423224073738771,-0.2517829037882263,-1.4943719170324898,9.75746746058683,0.0010908291952960653,1.8608416291678112e-06,0.03381575425739013,6.598357310696633,52.2613321400285,-52.5625
1772305829.1003044,4.337984464873879,1.8698062865391578,-8.408216980286474,-0.31515754778132526,-1.4777972013965843,9.764449646821458,-0.00980629770788958,-0.006561722746438903,0.07308566242726255,6.598357310696633,52.2613321400285,-51.5
1772305829.1520786,4.4003316761516595,1.875778845431358,-8.442395536251558,-0.3360718162393621,-1.4386089031213394,9.766306301961187,-0.026176179003847232,-0.002226318589692158,0.025089107997418487,6.598357310696633,52.2613321400285,-51.5
1772305829.1987069,5.096000956716756,1.8588386603138376,-8.475699723582276,-0.3499900282704991,-1.412529528381139,9.700639651070093,-0.00544298092670532,-0.006554279379922231,0.020725784867432664,6.972610436455477,52.69947121367948,-51.5
1772305829.2566,5.1794439058984905,1.8720772967840609,-8.47427816455318,-0.2756475975225037,-1.3816509083116761,9.656939228446625,0.006539392646888889,0.0032836526356632032,0.05672320068981571,6.972610436455477,52.69947121367948,-51.5
1772305829.2788146,5.713648359546978,1.8636674704569478,-8.488985923749622,-0.22267436052204925,-1.4514137098678874,9.708139766332078,-0.009810019391147918,-0.004380064355846772,0.038179077387375956,9.161493292391565,51.89070403890724,-51.75
1772305829.298981,5.713648359546978,1.8636674704569478,-8.488985923749622,-0.22267436052204925,-1.4514137098678874,9.708139766332078,-0.009810019391147918,-0.004380064355846772,0.038179077387375956,9.161493292391565,51.89070403890724,-51.75
1772305829.335765,6.400126697733383,1.8873057530179782,-8.493080791443084,-0.17067373962176033,-1.5153791078094827,9.764888610115873,0.007632082683814123,0.0021946842819963053,0.06544984694978735,8.475700186677383,50.88953269185675,-50.5625
1772305829.4140913,6.400126697733383,1.8873057530179782,-8.493080791443084,-0.17067373962176033,-1.5153791078094827,9.764888610115873,0.007632082683814123,0.0021946842819963053,0.06544984694978735,8.475700186677383,50.88953269185675,-50.5625
1772305829.4976575,7.002978087892889,1.9048682552277667,-8.49866033903518,-0.21795273739504664,-1.486960765600215,9.707583380486449,0.003291096002179874,-0.01090270942807315,0.0272707695624114,8.475167094818914,51.20203223715733,-51.0
1772305829.5171425,7.557871991683044,1.9110695177462156,-8.491626782206787,-0.24125431359242966,-1.4580362224430286,9.7017015432945,0.0010964117201835689,-0.0032706267442590285,0.06435901616729091,8.475167094818914,51.20203223715733,-51.0
1772305829.5730267,8.253703039790114,1.9092285900394235,-8.51875035052791,-0.24664604205456953,-1.485601638623557,9.771379703908714,-0.002168632499187956,-0.007639526050330793,0.07308566242726255,9.602724298821654,49.703953550405025,-51.0
1772305829.645744,8.253703039790114,1.9092285900394235,-8.51875035052791,-0.24664604205456953,-1.485601638623557,9.771379703908714,-0.002168632499187956,-0.007639526050330793,0.07308566242726255,9.602724298821654,49.703953550405025,-51.0
1772305829.690649,8.591702204912716,1.9015500448152671,-8.543753121484391,-0.25017711305843143,-1.537397183566367,9.817749741441418,-0.0010684990957460516,-0.013091811185181953,0.013089969389957472,9.602724298821654,49.703953550405025,-51.0
1772305829.7342873,8.591702204912716,1.9015500448152671,-8.543753121484391,-0.25017711305843143,-1.537397183566367,9.817749741441418,-0.0010684990957460516,-0.013091811185181953,0.013089969389957472,9.602724298821654,49.703953550405025,-51.0
1772305829.7618353,9.155709620481737,1.8871381091980588,-8.5316709026522,-0.25921721504696243,-1.5718779529432862,9.821847589773618,-3.7216832583356223e-06,0.0021816583905921306,0.044724062082354694,10.977082587914055,50.08129860894298,-50.25
1772305829.7983305,9.528498458552624,1.8946123388942229,-8.534529331596673,-0.2754284018187253,-1.5011786474841164,9.794468656696857,-0.007622778475668284,-0.007648830258476632,0.031634092692397225,10.977082587914055,50.08129860894298,-50.25
1772305829.8425083,10.52065645658857,1.9050109906059178,-8.516433968125241,-0.28631377442334754,-1.3972622331831055,9.776248282576995,0.01527719125903242,-0.0032464358030798468,0.028361600344907856,11.790221115925727,49.7076851934143,-49.5
1772305829.8865576,10.52065645658857,1.9050109906059178,-8.516433968125241,-0.28631377442334754,-1.3972622331831055,9.776248282576995,0.01527719125903242,-0.0032464358030798468,0.028361600344907856,11.790221115925727,49.7076851934143,-49.5
1772305829.9273856,10.999171581958636,1.911973557917672,-8.503932066627295,-0.27352717209451577,-1.304657033972928,9.764122827135143,-0.0076097525842641085,-0.01528463462554909,0.031634092692397225,11.790221115925727,49.7076851934143,-49.5
1772305829.962417,11.41466007218909,1.92123879630049,-8.492199953737455,-0.2583276174002767,-1.2430178955547835,9.739327913452206,0.0032780701107756995,-0.003266905061000693,0.016362461737446838,12.166606609118443,48.89582608586294,-49.375
1772305829.995272,11.526286037523839,1.935032038816156,-8.475441809766627,-0.22799347594992517,-1.2889362768983283,9.722827175373544,0.01419008374699469,-0.005429955035301145,0.06872233929727672,12.166606609118443,48.89582608586294,-49.375
1772305830.070418,12.217405148832883,1.9444455133973957,-8.468494953655128,-0.2278485526805352,-1.336254219375683,9.725226565336795,-0.0021649108159296202,-0.009821184440922923,0.07635815477475191,12.479106154419025,48.896359177721415,-49.0
1772305830.1071804,12.688666829938244,1.9645597760915579,-8.454892586033797,-0.20095130830252378,-1.3911138781521801,9.726823332554396,0.010919457002735661,-0.006526366755484714,0.04145156973486533,12.479106154419025,48.896359177721415,-49.0
1772305830.1605482,12.688666829938244,1.9645597760915579,-8.454892586033797,-0.20095130830252378,-1.3911138781521801,9.726823332554396,0.010919457002735661,-0.006526366755484714,0.04145156973486533,12.479106154419025,48.896359177721415,-49.0
1772305830.2175786,13.182643023882985,1.9670140910438572,-8.45731378807422,-0.20969821923502063,-1.494570156292993,9.794788197447039,-0.0032594616944840215,-0.007641386891959961,0.016362461737446838,13.606023648191604,47.773279945329804,-49.0
1772305830.2846363,14.18511959173052,1.9783914524169786,-8.447524388587786,-0.2256686393876404,-1.4965341361297098,9.75639026313282,0.005457867659738662,-0.0021723541824462916,0.020725784867432664,13.606023648191604,47.773279945329804,-49.0
1772305830.3481548,15.003832329185647,2.004032996309099,-8.437823318357749,-0.25473645504544273,-1.367246366441539,9.672582869228643,-0.0021742150240754592,-0.004367038464442597,0.04581489286485115,13.605490556333136,48.08577949063039,-48.5
1772305830.446551,15.632327506771833,2.02350599283419,-8.437443373745293,-0.27918807742351626,-1.334904063802942,9.668373758911804,0.0011094376115877433,-0.010906431111331485,0.031634092692397225,15.482833432313885,46.71398004245863,-48.1875
1772305830.5855746,16.028193266935048,2.0288370314159296,-8.412200235302407,-0.23523131663518657,-1.3233132278996613,9.622086190819637,0.0109287612108815,-0.01198051273196504,0.08290313946973066,15.482833432313885,46.71398004245863,-48.1875
1772305830.6218548,18.102228168719538,1.9892676469453907,-8.418677911525771,-0.19203300541836332,-1.3394628501175054,9.56521146074398,-0.013089950343552785,-2.2330099550013735e-05,0.07090400086226964,16.610390636316627,45.21590135570632,-49.0
1772305830.7257411,18.308630773027037,1.9859404841772796,-8.43236180137122,-0.21732622063584398,-1.3531763808572244,9.530017051836094,-0.01090270942807315,-0.003291096002179874,-0.00545415391248228,15.922251926425185,45.589728007978394,-49.0
1772305830.768126,18.44441534083814,1.9704825208217571,-8.448196162026708,-0.23415286641353641,-1.3656476892143856,9.570152688294272,-0.008728494403997691,0.0010759424622627228,0.007635815477475192,15.922251926425185,45.589728007978394,-49.0
1772305830.8013928,18.44441534083814,1.9704825208217571,-8.448196162026708,-0.23415286641353641,-1.3656476892143856,9.570152688294272,-0.008728494403997691,0.0010759424622627228,0.007635815477475192,15.922251926425185,45.589728007978394,-49.0
1772305830.8762987,18.93437911585226,1.9871103043704603,-8.45035874633989,-0.27196329938191466,-1.4609656347003563,9.596862506012753,-0.001094550878554401,0.002179797548962963,0.028361600344907856,15.485392273234531,45.21398222501584,-48.5
1772305830.9098403,19.495804484584223,1.9882106126947354,-8.45429543448608,-0.270364865431725,-1.5243530114035406,9.614637591336189,0.0011001334034419043,-0.005452285134851159,0.037088246604879506,15.485392273234531,45.21398222501584,-48.5
1772305830.955706,19.879560378375068,1.9900806698765725,-8.459090818322903,-0.269301125493551,-1.5665366025161165,9.649882494009457,-0.007626500158926619,-0.005467171867884501,0.014180800172453928,17.29863596457976,44.779574794374135,-48.5
1772305831.0029001,20.34294229208152,1.9955328048386338,-8.449279913977584,-0.26209131615919934,-1.4842093726465284,9.646576689368603,0.009826766965810427,-0.005437398401817816,0.04581489286485115,17.29863596457976,44.779574794374135,-48.5
1772305831.0281954,20.34294229208152,1.9955328048386338,-8.449279913977584,-0.26209131615919934,-1.4842093726465284,9.646576689368603,0.009826766965810427,-0.005437398401817816,0.04581489286485115,17.29863596457976,44.779574794374135,-48.5
1772305831.0511358,20.941086743669196,1.999525157505747,-8.453067273921619,-0.25704218673022505,-1.5766062217861214,9.671137606966926,-0.01419008374699469,0.005429955035301145,0.008726646259971648,18.42736597067113,42.59399710796055,-48.5
1772305831.1067188,21.748338330633615,1.9998415326127357,-8.464674645498475,-0.2570670991784654,-1.614685251273521,9.677447288143226,0.0021667716575587883,0.008730355245626858,-0.002181661564992912,18.42736597067113,42.59399710796055,-48.5
1772305831.152717,22.140082993658822,2.0067389636841693,-8.454630257053537,-0.2570836781344791,-1.6400264200267547,9.71175231584817,-0.007639526050330793,0.002168632499187956,0.02399827721492203,18.425979931839112,43.40649592574206,-49.0
1772305831.1892157,22.16833034899042,2.015734466777056,-8.45291151678906,-0.25710041765032104,-1.653545577912574,9.704475923207667,-0.009819323599293757,0.0010740816206335551,0.018544123302439753,18.425979931839112,43.40649592574206,-49.0
1772305831.206943,22.16833034899042,2.015734466777056,-8.45291151678906,-0.25710041765032104,-1.653545577912574,9.704475923207667,-0.009819323599293757,0.0010740816206335551,0.018544123302439753,18.425979931839112,43.40649592574206,-49.0
1772305831.2402208,22.590618757851217,2.0180775611524306,-8.444217795901,-0.2370523293824233,-1.6558179743517063,9.699633565188044,0.007643247733589129,-0.004350290889780087,-0.013089969389957472,18.802898516890295,42.282137272890125,-49.375
1772305831.2787611,22.590618757851217,2.0180775611524306,-8.444217795901,-0.2370523293824233,-1.6558179743517063,9.699633565188044,0.007643247733589129,-0.004350290889780087,-0.013089969389957472,18.802898516890295,42.282137272890125,-49.375
1772305831.308406,22.992018903219883,2.00093418812269,-8.453505662978342,-0.27411540942532653,-1.5236115512826547,9.69641103001867,-0.00870430346281851,-0.013104837076586127,0.04254240051736178,18.802898516890295,42.282137272890125,-49.375
1772305831.3335729,23.429707555412687,1.9909112548406522,-8.483269123887384,-0.2686916328290999,-1.4255429754002256,9.67754091032493,-0.016341968671520133,-0.012027033772694236,-0.018544123302439753,19.927363788113922,42.596555948881196,-48.1875
1772305831.36169,23.838842875299722,1.981507770858968,-8.491606225318646,-0.2650821700918655,-1.360279433648242,9.664983056461795,0.007602309217747437,0.019647951406733352,0.001090830782496456,19.927363788113922,42.596555948881196,-48.1875
1772305831.3855836,23.838842875299722,1.981507770858968,-8.491606225318646,-0.2650821700918655,-1.360279433648242,9.664983056461795,0.007602309217747437,0.019647951406733352,0.001090830782496456,19.927363788113922,42.596555948881196,-48.1875
1772305831.4223754,24.440710859117274,1.9918758308959421,-8.4884921621441,-0.2626801129605767,-1.316847275653827,9.64993572158166,0.006535670963630553,0.0054653110262553335,0.014180800172453928,20.617954720554316,40.78523138822645,-48.1875
1772305831.452224,24.84298042805527,1.9859276581279368,-8.482015051383993,-0.24435603657216895,-1.2879151276484688,9.639921888308674,0.003266905061000693,0.0032780701107757,0.016362461737446838,20.617954720554316,40.78523138822645,-48.1875
1772305831.4810195,24.84298042805527,1.9859276581279368,-8.482015051383993,-0.24435603657216895,-1.2879151276484688,9.639921888308674,0.003266905061000693,0.0032780701107757,0.016362461737446838,20.617954720554316,40.78523138822645,-48.1875
1772305831.5077379,24.858103057744593,1.9871150389590422,-8.48203639778714,-0.2388517821091375,-1.2686725191558006,9.63325779412735,0.008734076928885193,-0.004348430048150919,-0.011999138607461015,20.615182642890282,42.410229023789476,-48.5
1772305831.5423052,25.28208884943378,1.98429692797289,-8.482197063772189,-0.22829311796113297,-1.3762792115882774,9.695725148038875,0.0011001334034419043,-0.005452285134851159,0.02945243112740431,20.615182642890282,42.410229023789476,-48.5
1772305831.572563,25.28208884943378,1.98429692797289,-8.482197063772189,-0.22829311796113297,-1.3762792115882774,9.695725148038875,0.0011001334034419043,-0.005452285134851159,0.02945243112740431,20.615182642890282,42.410229023789476,-48.5
1772305831.59649,25.815978287245976,1.967624576106372,-8.478624616040456,-0.21123112439847994,-1.447873144139133,9.73729647426093,0.0021816583905921306,3.7216832583356223e-06,0.032724923474893676,20.992740938171625,40.91087091657684,-48.875
1772305831.6394722,26.23970105404846,1.9663648062478956,-8.48568029493953,-0.19995074155307122,-1.4520317175743929,9.718130163577094,-0.002179797548962963,-0.001094550878554401,0.039269908169872414,20.992740938171625,40.91087091657684,-48.875
1772305831.6687472,26.484858631325142,1.9640638132719945,-8.486264386358688,-0.19244377277958463,-1.4547992017412492,9.70537519791872,-0.0076469694168474645,0.006531949280372218,-0.013089969389957472,20.30470884665188,41.2221976597888,-49.6875
1772305831.696315,27.00412692118182,1.9750847592404046,-8.513007648405443,-0.19743763819281693,-1.4834189054773441,9.740373362950526,0.005444841768334488,0.005463450184626166,0.031634092692397225,20.30470884665188,41.2221976597888,-49.6875
1772305831.734612,27.031517443873618,1.9789297277063242,-8.490075763334387,-0.23086696140067964,-1.5025163562630017,9.78038980936067,0.0010833858287793941,0.004365177622813429,0.032724923474893676,21.680239937832905,40.91204371866547,-50.1875
1772305831.7599463,27.031517443873618,1.9789297277063242,-8.490075763334387,-0.23086696140067964,-1.5025163562630017,9.78038980936067,0.0010833858287793941,0.004365177622813429,0.032724923474893676,21.680239937832905,40.91204371866547,-50.1875
1772305831.8325696,28.434809263814216,1.9554497656368592,-8.50455568453149,-0.29712208774989696,-1.390023002074532,9.797981712760466,0.015279052100661586,-0.004337264998375912,-0.05890486225480862,22.118912103342353,40.22529104760604,-49.375
1772305831.8826203,28.33496200706884,1.948090429371826,-8.506522012196559,-0.3174134438125107,-1.360114100122612,9.715029059704852,0.00435587341466759,0.004370760147700933,-0.07090400086226964,22.118912103342353,40.22529104760604,-49.375
1772305831.9138696,28.33496200706884,1.948090429371826,-8.506522012196559,-0.3174134438125107,-1.360114100122612,9.715029059704852,0.00435587341466759,0.004370760147700933,-0.07090400086226964,22.118912103342353,40.22529104760604,-49.375
1772305831.9609244,28.814310414346014,1.9260683400009244,-8.527510095347926,-0.304093489418494,-1.3769605839720214,9.659824995738191,-0.01527719125903242,0.0032464358030798468,-0.06544984694978735,23.62029595961716,39.415351070745174,-49.6875
1772305831.9877899,28.73014443818349,1.8908906776271248,-8.529096873307433,-0.2783724270289254,-1.465080656078427,9.656538424911373,0.0021760758657046273,0.003276209269146532,-0.05345070834232634,23.62029595961716,39.415351070745174,-49.6875
1772305832.01458,28.73014443818349,1.8908906776271248,-8.529096873307433,-0.2783724270289254,-1.465080656078427,9.656538424911373,0.0021760758657046273,0.003276209269146532,-0.05345070834232634,23.62029595961716,39.415351070745174,-49.6875
1772305832.0549376,28.49294920512259,1.8527458250955793,-8.537815255833847,-0.28455889260896844,-1.4758359450309126,9.686323184516688,0.0021611891326712845,0.012002842831515054,-0.0272707695624114,22.496470398623696,38.72593294039341,-50.875
1772305832.0867643,28.49294920512259,1.8527458250955793,-8.537815255833847,-0.28455889260896844,-1.4758359450309126,9.686323184516688,0.0021611891326712845,0.012002842831515054,-0.0272707695624114,22.496470398623696,38.72593294039341,-50.875
1772305832.111291,28.443880415485683,1.8491692567416236,-8.53899632985744,-0.2889364854994713,-1.4439482713522516,9.694243343783215,-0.0022002668068838087,0.010904570269702318,-0.06217735460229799,22.496470398623696,38.72593294039341,-50.875
1772305832.1549788,28.261377223881855,1.85248808902539,-8.551710610869675,-0.2751413096843545,-1.4126635281785254,9.71623967983771,-0.0022021276485129767,0.011995399464998382,-0.04799655442984406,24.99529395893972,39.41769667492244,-50.1875
1772305832.201985,28.038727475077163,1.8495384272410427,-8.552302744988515,-0.2658523525711417,-1.4554009110309212,9.730877995766802,0.005422511668784474,0.018553400528178953,-0.06435901616729091,24.99529395893972,39.41769667492244,-50.1875
1772305832.2304032,28.038727475077163,1.8495384272410427,-8.552302744988515,-0.2658523525711417,-1.4554009110309212,9.730877995766802,0.005422511668784474,0.018553400528178953,-0.06435901616729091,24.99529395893972,39.41769667492244,-50.1875
1772305832.2651744,27.944923088518955,1.8322617411056454,-8.541560990756524,-0.2631812479854052,-1.3868397699555832,9.747309854911547,-0.0022021276485129767,0.011995399464998382,-0.032724923474893676,24.30896776136707,38.72902487317253,-50.875
1772305832.3009055,27.76628654627675,1.8035479825544993,-8.569819635636271,-0.2613465936636521,-1.3746641648486169,9.758245073616482,-0.0032892351605507066,0.009811880232777084,-0.06654067773228381,24.30896776136707,38.72902487317253,-50.875
1772305832.3820033,27.629921627727725,1.8070287340037212,-8.568978803813529,-0.25687755376573873,-1.309688912973615,9.738761445851665,0.008732216087256026,-0.003257600852854854,-0.032724923474893676,25.685884891380113,37.60637211426769,-50.875
1772305832.4269617,27.34369876150086,1.7651164366573446,-8.578266040694052,-0.25380644873728814,-1.3233154249528452,9.725795309220562,0.004354012573038422,0.005461589342996998,-0.10581058590215622,25.685884891380113,37.60637211426769,-50.875
1772305832.4517167,27.1839334679631,1.7650598762831546,-8.570322629099852,-0.23169202160701965,-1.332349478022027,9.747272495499674,0.014167753647444676,0.00765999530825164,-0.0818123086872342,26.810883254462208,37.608291244958174,-51.0
1772305832.488325,27.020233391811768,1.7460320291151885,-8.574725055262,-0.2771870405071404,-1.3384642547272323,9.768255546467172,-0.0021928234403671377,0.006541253488518057,-0.07526732399225546,26.810883254462208,37.608291244958174,-51.0
1772305832.5364578,26.799521647354794,1.7122978638767825,-8.596676193913757,-0.25394175793164164,-1.3424422678249928,9.775529309075365,0.0010778033038918906,0.0076376652087016255,-0.09708393964218458,26.12285116294246,37.919617988170124,-50.5625
1772305832.5698993,28.026354724175057,1.7124735030879374,-8.586039682565504,-0.23837527314563176,-1.4019564073851571,9.710122570984158,0.01198051273196504,0.010928761210881498,-0.06763150851478027,26.12285116294246,37.919617988170124,-50.5625
1772305832.677681,27.638620500135506,1.6850725955079475,-8.598728502029767,-0.2243586236450192,-1.5314824860977936,9.671079200389086,0.00325201832796735,0.012004703673144221,-0.07090400086226964,27.499768292955505,36.79696522926529,-50.5
1772305832.7464092,27.385320389934588,1.6812724281314728,-8.60568409555974,-0.23203992307429525,-1.5445089207516292,9.674063307510798,0.00325201832796735,0.012004703673144221,-0.08944812416470939,27.186522419053073,37.23393150082764,-51.375
1772305832.7663248,27.385320389934588,1.6812724281314728,-8.60568409555974,-0.23203992307429525,-1.5445089207516292,9.674063307510798,0.00325201832796735,0.012004703673144221,-0.08944812416470939,27.186522419053073,37.23393150082764,-51.375
1772305832.7993927,27.242209001073025,1.6620292884387804,-8.602552913907552,-0.22711642151857875,-1.5531607482815055,9.672704085758317,0.006526366755484714,0.01091945700273566,-0.06872233929727672,27.186522419053073,37.23393150082764,-51.375
1772305832.817908,27.242209001073025,1.6620292884387804,-8.602552913907552,-0.22711642151857875,-1.5531607482815055,9.672704085758317,0.006526366755484714,0.01091945700273566,-0.06872233929727672,27.186522419053073,37.23393150082764,-51.375
1772305832.8389192,27.049491157382423,1.6459522303198189,-8.598804974722349,-0.2673262751530711,-1.5589926261309726,9.651728868621626,-0.0021909625987379697,0.005450424293221991,-0.06981317007977318,27.187695221141702,36.54643250116636,-50.875
1772305832.8789356,0.12271106721375906,-0.40909239877405257,-8.996002982799421,-0.3207379165833,-1.6264763569009908,9.637770095925687,0.0076097525842641085,0.01528463462554909,-0.08072147790473774,27.187695221141702,36.54643250116636,-50.875
1772305832.9268477,26.653060995612492,1.6264919463606005,-8.587197131903352,-0.35628276730798847,-1.6713860258857713,9.66193180569944,0.006531949280372218,0.0076469694168474645,-0.0272707695624114,29.000192583885074,36.54952443394547,-52.1875
1772305832.9708533,26.481864366427118,1.6153046671316094,-8.596737513867454,-0.3399787913086623,-1.5941610131697657,9.67801115364989,-0.005467171867884501,0.007626500158926619,-0.0719948316447661,29.000192583885074,36.54952443394547,-52.1875
1772305833.011963,26.230622252552713,1.608517934014966,-8.590393517470902,-0.32243846372834756,-1.5427572170555521,9.658605774726956,0.0065207842305972106,0.014191944588623858,-0.10799224746714914,28.624020327435748,37.23638372337659,-52.1875
1772305833.0533247,26.230622252552713,1.608517934014966,-8.590393517470902,-0.32243846372834756,-1.5427572170555521,9.658605774726956,0.0065207842305972106,0.014191944588623858,-0.10799224746714914,28.624020327435748,37.23638372337659,-52.1875
1772305833.1018775,29.59797456416769,1.6042595565371138,-8.584708795845305,-0.3073241542554358,-1.5593593947535882,9.660513329176231,-0.004393090247250946,0.017445823758220375,-0.0916297857297023,30.502322768761736,35.30208509366379,-52.1875
1772305833.1616764,29.394082869642165,1.6071702031235886,-8.54642155067953,-0.2973278222706849,-1.5396620633936482,9.713863402149629,0.020692259561300223,0.019670281506283364,-0.07744898555724837,30.502322768761736,35.30208509366379,-52.1875
1772305833.214873,29.394082869642165,1.6071702031235886,-8.54642155067953,-0.2973278222706849,-1.5396620633936482,9.713863402149629,0.020692259561300223,0.019670281506283364,-0.07744898555724837,30.502322768761736,35.30208509366379,-52.1875
1772305833.2610629,29.16419492999478,1.5882676119278134,-8.543043063921035,-0.2641998405714379,-1.3592527161579921,9.749367279754061,-0.0021649108159296202,-0.009821184440922923,-0.031634092692397225,29.442169918917017,33.92527458202244,-52.5
1772305833.3096652,29.120624758299726,1.5814582000186694,-8.529916170972657,-0.2421535388143923,-1.23919231087712,9.772994713695512,0.015279052100661586,-0.004337264998375912,-0.02181661564992912,29.442169918917017,33.92527458202244,-52.5
1772305833.363219,28.95557801001763,1.572047135385177,-8.459382881702444,-0.27091700253678624,-1.1894735971613724,9.728506496316067,0.014158449439298837,0.013114141284731966,-0.02945243112740431,30.126576985799183,35.73894474685444,-54.5
1772305833.3954647,30.603250074972784,1.5614390137416563,-8.45724162074979,-0.29642371488381397,-1.347068851272687,9.688864749494039,-0.014175197013961346,-0.003296678527067378,-0.017453292519943295,30.126576985799183,35.73894474685444,-54.5
1772305833.4274032,30.603250074972784,1.5614390137416563,-8.45724162074979,-0.29642371488381397,-1.347068851272687,9.688864749494039,-0.014175197013961346,-0.003296678527067378,-0.017453292519943295,30.126576985799183,35.73894474685444,-54.5
1772305833.45901,32.13387282888914,1.5511853293863174,-8.463688945120227,-0.3067079333420061,-1.4519353196178004,9.662483609811307,-0.016356855404553478,-0.0033004002103257137,-0.028361600344907856,30.938436093350536,36.11533024004716,-53.375
1772305833.48628,33.58205074317387,1.5432876491823178,-8.426694753999858,-0.370418782124608,-1.5218197917651024,9.644927256049089,0.028335507294889352,0.01531999061650328,-0.03490658503988659,30.938436093350536,36.11533024004716,-53.375
1772305833.5155935,33.58205074317387,1.5432876491823178,-8.426694753999858,-0.370418782124608,-1.5218197917651024,9.644927256049089,0.028335507294889352,0.01531999061650328,-0.03490658503988659,30.938436093350536,36.11533024004716,-53.375
1772305833.5622156,36.28166235122927,1.5129578129121937,-8.432909938217096,-0.31257285680145175,-1.504598905182979,9.629898587030334,-0.006541253488518057,-0.0021928234403671377,-0.031634092692397225,31.815247332510957,35.054324443228886,-53.375
1772305833.6021152,37.57589263904421,1.5263673289196797,-8.435928520839882,-0.294216157590309,-1.4530315538867158,9.683454298118654,-0.008752685345176871,0.015256722001111573,-0.04908738521234052,31.815247332510957,35.054324443228886,-53.375
1772305833.6523547,37.57589263904421,1.5263673289196797,-8.435928520839882,-0.294216157590309,-1.4530315538867158,9.683454298118654,-0.008752685345176871,0.015256722001111573,-0.04908738521234052,31.815247332510957,35.054324443228886,-53.375
1772305833.6983063,38.77970249396193,1.5294616852998066,-8.47205169673192,-0.2404668678167656,-1.4025093976864509,9.742813531591565,0.004342847523263416,0.01200656451477339,-0.030543261909900768,33.00530444557381,33.556352374848274,-54.0625
1772305833.7305746,39.86714072616764,1.5199639561232063,-8.496921396101287,-0.19604241198523256,-1.3916967446551987,9.79204904945477,-0.0294561099562521,0.0021314156666046,-0.04799655442984406,33.00530444557381,33.556352374848274,-54.0625
1772305833.7573884,39.83878398084962,1.5155134528456007,-8.490954338515708,-0.2133669927019336,-1.3511298661290003,9.751222279034934,-0.010910152794589822,0.0010722207790043873,-0.006544984694978736,32.19163282570367,34.24246533567754,-55.375
1772305833.7807355,39.83878398084962,1.5155134528456007,-8.490954338515708,-0.2133669927019336,-1.3511298661290003,9.751222279034934,-0.010910152794589822,0.0010722207790043873,-0.006544984694978736,32.19163282570367,34.24246533567754,-55.375
1772305833.808967,39.70401589772781,1.5036213266617662,-8.507973261210207,-0.22489630764065097,-1.324133061631541,9.857856987678218,0.006552418538293064,-0.004352151731409255,-0.0719948316447661,32.19163282570367,34.24246533567754,-55.375
1772305833.8498547,39.56932551768807,1.503385860587823,-8.454094009631453,-0.2324034521728783,-1.403175088174122,9.935511418507216,0.0010852466704085618,0.0032743484275173642,-0.06544984694978735,32.62774615029247,35.0557104820609,-54.0625
1772305833.8679428,39.56932551768807,1.503385860587823,-8.454094009631453,-0.2324034521728783,-1.403175088174122,9.935511418507216,0.0010852466704085618,0.0032743484275173642,-0.06544984694978735,32.62774615029247,35.0557104820609,-54.0625
1772305833.8949058,39.503476313442484,1.498049163501497,-8.43301199582475,-0.24408958667888492,-1.455788086692547,9.987189574767084,-0.00979141097485624,-0.015288356308807425,-0.037088246604879506,32.62774615029247,35.0557104820609,-54.0625
1772305833.9182997,40.45852531418863,1.478614684744079,-8.460259603714608,-0.21843833587266914,-1.4773639580625002,9.93795301779221,-0.007606030901005773,-0.01746629301614122,-0.04254240051736178,33.315245149953746,35.056883284149535,-54.5
1772305833.94953,40.34773598648427,1.4752906322667856,-8.475029310096618,-0.24485410392508475,-1.491796642716509,9.771382170841036,0.0021723541824462916,0.005457867659738662,-0.08290313946973066,33.315245149953746,35.056883284149535,-54.5
1772305834.0068128,41.28420336319404,1.4468996258189535,-8.461751165978496,-0.20563516306934734,-1.4611631421506133,9.66053113291331,0.010913874477848157,-0.003253879169596518,-0.050178215994836975,33.317164280644235,33.931884921067436,-54.875
1772305834.046424,42.22385862080792,1.439353562972173,-8.464375865467568,-0.19960603707445498,-1.440811128157516,9.640282792776748,0.00110385508670024,-0.00763394352544329,-0.044724062082354694,33.317164280644235,33.931884921067436,-54.875
1772305834.074801,43.21896767250686,1.4400038285459014,-8.45797201364924,-0.19570214278506812,-1.363710060230971,9.643533307141244,-0.004389368563992611,0.015264165367628243,-0.08835729338221293,33.00839637835293,31.7438550121049,-56.875
1772305834.1370778,43.923185990115506,1.408718359396079,-8.467222070108173,-0.219864999465272,-1.3124458120477287,9.64569648814019,0.007630221842184954,0.003285513477292371,-0.07963064712224129,33.00839637835293,31.7438550121049,-56.875
1772305834.1636093,43.83177871052931,1.4110593710194754,-8.472133203524772,-0.2559301556222703,-1.3285408685766527,9.680587178003869,0.001064777412487716,0.015273469575774083,-0.08726646259971647,35.1909887503591,34.622582471879525,-56.5
1772305834.1817453,44.43755747214546,1.3933279309420776,-8.459606017597473,-0.2799311141705609,-1.3392519489030896,9.71384187747556,0.009802576024631245,0.008743381137031034,-0.08072147790473774,35.1909887503591,34.622582471879525,-56.5
1772305834.2420855,45.07185585613103,1.3571575236201392,-8.47132483171993,-0.29256978994774757,-1.3396841331238039,9.735972508494637,-0.0011001334034419043,0.005452285134851159,-0.10581058590215622,34.81780180831719,33.55944430762739,-56.0625
1772305834.2882512,45.724150938210535,1.3417469756557494,-8.474521641224035,-0.29429047381409756,-1.3399603340832473,9.740664861100528,0.006528227597113882,0.009828627807439596,-0.11671889372712078,34.81780180831719,33.55944430762739,-56.0625
1772305834.3178253,46.36780034540205,1.3084109254016814,-8.45595656936339,-0.2954298633000414,-1.3434892495764446,9.743787569342736,0.018523627062112268,0.012030755455952571,-0.0818123086872342,35.94333326325775,33.24886389301729,-58.0625
1772305834.3547938,46.16286220631202,1.2775756683961332,-8.45708829831831,-0.2727723663947426,-1.345797758575901,9.735830361673031,-0.005454145976480327,-9.304208145839055e-06,-0.0818123086872342,35.94333326325775,33.24886389301729,-58.0625
1772305834.378906,46.16286220631202,1.2775756683961332,-8.45708829831831,-0.2727723663947426,-1.345797758575901,9.735830361673031,-0.005454145976480327,-9.304208145839055e-06,-0.0818123086872342,35.94333326325775,33.24886389301729,-58.0625
1772305834.4073617,45.783993684473515,1.255019447807845,-8.474198670909232,-0.2576940553050906,-1.347334045527304,9.730534928856676,0.0010684990957460516,0.013091811185181953,-0.13308135546456762,37.00412582333263,34.25067495029794,-58.5
1772305834.4662566,45.51729025119522,1.2519399659734665,-8.462438757756946,-0.24780226785604542,-1.2647287563306562,9.727010877471251,0.0021556066077837812,0.015275330417403251,-0.09926560120717749,37.00412582333263,34.25067495029794,-58.5
1772305834.4975104,45.51729025119522,1.2519399659734665,-8.462438757756946,-0.24780226785604542,-1.2647287563306562,9.727010877471251,0.0021556066077837812,0.015275330417403251,-0.09926560120717749,37.00412582333263,34.25067495029794,-58.5
1772305834.542314,45.24665201653476,1.213584743291385,-8.457853387786395,-0.24778977296522892,-1.2800145155845968,9.711285213811207,-0.00110385508670024,0.00763394352544329,-0.10799224746714914,36.31779962575998,33.56200314854803,-58.75
1772305834.591261,44.63630134570064,1.1723063759992156,-8.455300057995345,-0.24769032798821747,-1.347133306682713,9.709438392330979,-0.002189101757108802,0.004359595097925926,-0.12544553998709243,36.627313856653146,35.31253369408976,-58.75
1772305834.645112,44.63630134570064,1.1723063759992156,-8.455300057995345,-0.24769032798821747,-1.347133306682713,9.709438392330979,-0.002189101757108802,0.004359595097925926,-0.12544553998709243,36.627313856653146,35.31253369408976,-58.75
1772305834.6860585,44.40859550542926,1.1539873160963692,-8.43524341639491,-0.2442389240598662,-1.4117855742401826,9.73304203832107,-0.002179797548962963,-0.001094550878554401,-0.10253809355466686,36.627313856653146,35.31253369408976,-58.75
1772305834.7717094,44.04682440939736,1.1155222859215153,-8.428258430676063,-0.2418564572130483,-1.5049875386873426,9.748750001057473,-0.0021835192322212983,0.0010871075120377298,-0.08944812416470939,38.440237692883294,35.065625990628405,-58.375
1772305834.8166175,43.53065432376227,1.0684153638998066,-8.429613991996908,-0.2403565482275977,-1.5168358022919524,9.759203474789109,0.009804436866260414,0.007652551941734968,-0.10690141668465268,38.440237692883294,35.065625990628405,-58.375
1772305834.8718042,42.89507905878683,1.069783544539443,-8.423701069342913,-0.2421152412693045,-1.4854037954428223,9.726219761505885,0.011967486840560865,0.018564565577953957,-0.13526301702956053,38.690237329123754,35.06605246411518,-60.0
1772305834.9166117,42.89507905878683,1.069783544539443,-8.423701069342913,-0.2421152412693045,-1.4854037954428223,9.726219761505885,0.011967486840560865,0.018564565577953957,-0.13526301702956053,38.690237329123754,35.06605246411518,-60.0
1772305834.958892,42.60313357738109,1.0548331511601794,-8.423978820375398,-0.28071569945339114,-1.4771106620768029,9.717448958388239,0.0043484300481509185,0.008734076928885195,-0.10144726277217041,39.500923634586485,36.129936956969175,-61.5625
1772305834.9909093,42.359350189123056,1.0198308702013894,-8.440635175954657,-0.26960769793893274,-1.4715289039981339,9.711612086889737,-0.006561722746438903,0.00980629770788958,-0.11017390903214205,39.500923634586485,36.129936956969175,-61.5625
1772305835.0234995,41.960760214269634,1.0034814418309248,-8.438848608793379,-0.2924127110690785,-1.4143439545605594,9.70772771410961,0.007607891742634941,0.016375463820845152,-0.0916297857297023,39.93906270823746,35.755683831210334,-62.0
1772305835.0558217,41.82673511586337,0.9845365420081517,-8.435921713171217,-0.27413812415795924,-1.376230945449456,9.705142707415723,0.005444841768334488,0.005463450184626166,-0.11235557059713497,39.93906270823746,35.755683831210334,-62.0
1772305835.1152802,41.440173433961114,0.9272898646884083,-8.44238272228208,-0.23521573598868686,-1.3508215123897136,9.666626185556844,-0.006556140221551399,0.006533810122001386,-0.13308135546456762,39.501563344816645,35.75493750260848,-60.375
1772305835.1681132,41.006538034881586,0.9100797996143043,-8.425331050355494,-0.1925763744417016,-1.3405735001814598,9.640993870517502,0.007632082683814123,0.0021946842819963053,-0.09926560120717749,39.501563344816645,35.75493750260848,-60.375
1772305835.203753,40.740005105679536,0.8855960648494156,-8.414525140128697,-0.1642003556450608,-1.3337535625346641,9.647351633141774,-0.0043726209893301,0.005446702609963655,-0.12544553998709243,40.18724983215913,36.81860875871909,-62.75
1772305835.2585907,40.49597884609605,0.8544905370521073,-8.421296156338956,-0.14537349617493456,-1.2957639018138742,9.651582653147367,0.007632082683814123,0.0021946842819963053,-0.11017390903214205,40.18724983215913,36.81860875871909,-62.75
1772305835.289501,40.23344306791875,0.863908887749159,-8.420128489963316,-0.20643678198855997,-1.2706077479044102,9.654398349697498,0.01198051273196504,0.010928761210881498,-0.11780972450961724,41.43468917244081,38.32073894359575,-62.75
1772305835.336335,39.90799296382147,0.824375494924668,-8.420740424770976,-0.19670309617744455,-1.367514644964951,9.713139063322648,0.001074081620633555,0.009819323599293757,-0.10362892433716332,41.43468917244081,38.32073894359575,-62.75
1772305835.3729982,39.90799296382147,0.824375494924668,-8.420740424770976,-0.19670309617744455,-1.367514644964951,9.713139063322648,0.001074081620633555,0.009819323599293757,-0.10362892433716332,41.43468917244081,38.32073894359575,-62.75
1772305835.393122,39.66117786144963,0.8325977811917508,-8.413009524111828,-0.20695097120281358,-1.43203363446684,9.752230352063421,0.0010684990957460516,0.013091811185181953,-0.10144726277217041,40.998362611108625,37.63249361533261,-65.5625
1772305835.42093,39.53404418840321,0.8411883587282,-8.422404249936395,-0.21377081755593186,-1.4749703012560105,9.771554944627459,-0.01093620457739817,0.0163438295131493,-0.12980886311707826,40.998362611108625,37.63249361533261,-65.5625
1772305835.4425528,39.28863070091928,0.8297147449276226,-8.42174434833216,-0.2184748348898591,-1.4065360750086346,9.767689686572385,-0.004389368563992611,0.015264165367628243,-0.1407171709420428,40.998362611108625,37.63249361533261,-65.5625
1772305835.4619675,39.06484227413865,0.8245108644344407,-8.434002953647443,-0.21817460295100852,-1.4111647580964028,9.74170161856326,0.01196376515730253,0.020746223968546088,-0.13199052468207118,41.68276967799079,39.44616378016462,-64.75
1772305835.4964795,38.87831471789791,0.8282660999189407,-8.421720718851738,-0.217974801949514,-1.4142450949855347,9.724406849608927,0.010874796803635633,0.019653533931620854,-0.10362892433716332,41.68276967799079,39.44616378016462,-64.75
1772305835.532524,38.67865170270953,0.8291435053364521,-8.425357221000363,-0.22118694345499706,-1.4163007311814482,9.719587597479686,-2.4190941179181544e-05,0.01418077953884885,-0.12435470920459599,41.68276967799079,39.44616378016462,-64.75
1772305835.5579374,38.411887427964196,0.8071717813689737,-8.420458798934604,-0.23330855061276223,-1.4477918148847977,9.71638043902225,-0.006561722746438903,0.00980629770788958,-0.12217304763960307,41.432983278493715,39.32073748855761,-64.0
1772305835.6093378,38.17669636800836,0.7807109686036691,-8.395761039929337,-0.23127154737910138,-1.5088729421741323,9.704210775773175,0.01744024123333287,0.0076655778331391426,-0.11344640137963143,41.432983278493715,39.32073748855761,-64.0
1772305835.6483543,37.79985633569078,0.7484966314313056,-8.384841240766118,-0.2232257308018086,-1.549510337252657,9.696112000824963,0.008698720937931005,0.01637732466247432,-0.13526301702956053,41.430424437573066,40.8207353060004,-64.0
1772305835.7038252,37.49904887507063,0.7065160349353535,-8.393456580326085,-0.21791698099379153,-1.549793215007534,9.677341909736892,0.004354012573038422,0.005461589342996998,-0.15707963267948966,41.430424437573066,40.8207353060004,-64.0
1772305835.744098,37.49904887507063,0.7065160349353535,-8.393456580326085,-0.21791698099379153,-1.549793215007534,9.677341909736892,0.004354012573038422,0.005461589342996998,-0.15707963267948966,41.430424437573066,40.8207353060004,-64.0
1772305835.7660642,37.05645308825284,0.6939970082273865,-8.389577657976556,-0.2613867552343534,-1.449708151473219,9.751823528183742,0.00979885434137291,0.010925039527623163,-0.14726215563702155,42.30414374395438,41.57222687192551,-66.0
1772305835.8283541,36.69660833029088,0.672070606331057,-8.383043331564195,-0.2903154044022519,-1.3831026597145484,9.714417308855623,0.003253879169596518,0.010913874477848157,-0.12980886311707826,42.30414374395438,41.57222687192551,-66.0
1772305835.843608,36.48149624936628,0.6718027034208973,-8.386348078452675,-0.3095670972693031,-1.338777448981247,9.759771233601315,0.007615335109151612,0.012012147039660893,-0.13526301702956053,43.1148300494171,42.6361113647795,-66.75
1772305835.8613532,36.30407931525652,0.6721213406688319,-8.382978338692482,-0.2587933218267247,-1.3258966288730898,9.709671082907372,0.006526366755484714,0.01091945700273566,-0.10581058590215622,43.1148300494171,42.6361113647795,-66.75
1772305835.8825884,36.30407931525652,0.6721213406688319,-8.382978338692482,-0.2587933218267247,-1.3258966288730898,9.709671082907372,0.006526366755484714,0.01091945700273566,-0.10581058590215622,43.1148300494171,42.6361113647795,-66.75
1772305835.9095154,36.06908002101364,0.6704209061231341,-8.386872583433647,-0.29190037184519535,-1.3207838219356316,9.749922449836934,0.004340986681634247,0.013097393710069457,-0.15162547876700738,43.1148300494171,42.6361113647795,-66.75
1772305835.9672353,36.06908002101364,0.6704209061231341,-8.386872583433647,-0.29190037184519535,-1.3207838219356316,9.749922449836934,0.004340986681634247,0.013097393710069457,-0.15162547876700738,43.1148300494171,42.6361113647795,-66.75
1772305836.0043786,35.66166936068915,0.6653211513282123,-8.351374278105766,-0.2604110343616382,-1.317290003539527,9.776709284891327,0.0010591948876002126,0.01854595716166228,-0.12326387842209953,42.67477184507564,44.13536285362044,-66.75
1772305836.055386,35.11274977962885,0.6470858776313009,-8.377294327736154,-0.26274543897775343,-1.3885972017473192,9.794535624391472,-0.0011150201364752469,0.014178918697219682,-0.12762720155208535,42.67477184507564,44.13536285362044,-66.75
1772305836.0899658,35.11274977962885,0.6470858776313009,-8.377294327736154,-0.26274543897775343,-1.3885972017473192,9.794535624391472,-0.0011150201364752469,0.014178918697219682,-0.12762720155208535,42.67477184507564,44.13536285362044,-66.75
1772305836.1149945,34.78077587897264,0.6411542809122888,-8.343756830245344,-0.24088321129238996,-1.436011400760311,9.789673295658961,0.014156588597669668,0.014204970480028032,-0.10581058590215622,42.29668045793583,45.947220506133654,-66.75
1772305836.1358578,34.54643299642354,0.6307568833322484,-8.342963868098796,-0.24974989086524552,-1.4676049653928473,9.786437470203246,-0.00654683601340556,0.0010796641455210585,-0.09708393964218458,42.29668045793583,45.947220506133654,-66.75
1772305836.1527982,34.54643299642354,0.6307568833322484,-8.342963868098796,-0.24974989086524552,-1.4676049653928473,9.786437470203246,-0.00654683601340556,0.0010796641455210585,-0.09708393964218458,42.29668045793583,45.947220506133654,-66.75
1772305836.172683,34.298941088447485,0.6173641128099026,-8.335831417790775,-0.2591326276532676,-1.40835327197707,9.804354734752923,0.0163438295131493,0.01093620457739817,-0.14726215563702155,42.29604074770567,46.32221996049436,-67.1875
1772305836.2187614,34.12098792487416,0.6270927223291647,-8.314966600197625,-0.26519412918761465,-1.475965350775391,9.816278474161773,0.018516183695595597,0.01639407223713683,-0.10253809355466686,42.29604074770567,46.32221996049436,-67.1875
1772305836.314331,33.29553610796031,0.5979702828659754,-8.324729533874889,-0.271866849471251,-1.57765319390143,9.760401411544386,0.007585561643084927,0.02946541416439794,-0.13853550937704992,42.66965416323435,47.13535848850603,-67.1875
1772305836.3396034,33.29553610796031,0.5979702828659754,-8.324729533874889,-0.271866849471251,-1.57765319390143,9.760401411544386,0.007585561643084927,0.02946541416439794,-0.13853550937704992,42.66965416323435,47.13535848850603,-67.1875
1772305836.3852441,32.92016562719842,0.6323940533553232,-8.337697818786484,-0.27363437312202094,-1.6087031986523332,9.740196464654812,-0.014236604787723884,0.032700684917702776,-0.12762720155208535,43.10235569992896,49.94860072481312,-66.75
1772305836.4250352,32.76046180872407,0.629472028138025,-8.343529780800043,-0.2748106403670755,-1.6293666299627794,9.746820968447762,0.0010908291952960653,1.8608416291678112e-06,-0.12326387842209953,43.10235569992896,49.94860072481312,-66.75
1772305836.4599938,32.76046180872407,0.629472028138025,-8.343529780800043,-0.2748106403670755,-1.6293666299627794,9.746820968447762,0.0010908291952960653,1.8608416291678112e-06,-0.12326387842209953,43.10235569992896,49.94860072481312,-66.75
1772305836.4842327,32.285781700503534,0.6256813392374365,-8.351686553682452,-0.2822608211357462,-1.6565097528460744,9.751229501721415,0.010882240170152305,0.015290217150436594,-0.14944381720201447,42.78847011579636,50.760566450736164,-68.0
1772305836.5699232,31.884595597201567,0.6185336380327886,-8.354688838060923,-0.2872188332133243,-1.6745731979163572,9.78761444844168,0.0010684990957460516,0.013091811185181953,-0.11780972450961724,42.78847011579636,50.760566450736164,-68.0
1772305836.6214066,31.456212305941452,0.6132079031896406,-8.371769419101497,-0.2907237654756283,-1.5661703725867742,9.744925989891144,0.008700581779560174,0.015286495467178259,-0.11453723216212788,41.65920701784651,53.258643682450334,-65.5625
1772305836.6400943,31.456212305941452,0.6132079031896406,-8.371769419101497,-0.2907237654756283,-1.5661703725867742,9.744925989891144,0.008700581779560174,0.015286495467178259,-0.11453723216212788,41.65920701784651,53.258643682450334,-65.5625
1772305836.66526,31.179024739714958,0.6124170360264275,-8.33868150699779,-0.2597706761115927,-1.3969643408491268,9.70982707417245,0.014152866914411333,0.01638662887062016,-0.11453723216212788,41.65920701784651,53.258643682450334,-65.5625
1772305836.696566,31.179024739714958,0.6124170360264275,-8.33868150699779,-0.2597706761115927,-1.3969643408491268,9.70982707417245,0.014152866914411333,0.01638662887062016,-0.11453723216212788,41.65920701784651,53.258643682450334,-65.5625
1772305836.7225173,31.179024739714958,0.6124170360264275,-8.33868150699779,-0.2597706761115927,-1.3969643408491268,9.70982707417245,0.014152866914411333,0.01638662887062016,-0.11453723216212788,41.65920701784651,53.258643682450334,-65.5625
1772305836.7568812,30.843165650602845,0.6217313288404642,-8.331057068539064,-0.2892399217988413,-1.3480022429311849,9.686469137842238,-0.0021853800738504663,0.002177936707333795,-0.1090830782496456,42.094893868948546,54.32188846507417,-66.0
1772305836.8032775,30.355483447041923,0.6145401887348559,-8.303964116559854,-0.2386041319695215,-1.315298679187174,9.690995362383644,0.018519905378853934,0.014212413846544703,-0.09381144729469522,42.094893868948546,54.32188846507417,-66.0
1772305836.8357701,30.355483447041923,0.6145401887348559,-8.303964116559854,-0.2386041319695215,-1.315298679187174,9.690995362383644,0.018519905378853934,0.014212413846544703,-0.09381144729469522,42.094893868948546,54.32188846507417,-66.0
1772305836.888265,29.865108339430623,0.5753442573116626,-8.29314586409808,-0.2649130719886211,-1.4140613843848824,9.694007514254709,-0.004365177622813429,0.0010833858287793941,-0.11453723216212788,41.652916533916596,56.94613831699721,-65.1875
1772305836.9049544,29.865108339430623,0.5753442573116626,-8.29314586409808,-0.2649130719886211,-1.4140613843848824,9.694007514254709,-0.004365177622813429,0.0010833858287793941,-0.11453723216212788,41.652916533916596,56.94613831699721,-65.1875
1772305836.9380503,29.653338296020134,0.5871019434506028,-8.286920668063205,-0.27907627084116104,-1.4797811550364381,9.69601206767696,0.015243696109707399,0.016388489712249328,-0.12435470920459599,41.652916533916596,56.94613831699721,-65.1875
1772305836.9556305,29.366044209780224,0.5627619394877907,-8.27511045428345,-0.2886044367688785,-1.4633050051461307,9.697346075587141,-0.005470893551142837,0.009808158549518749,-0.1090830782496456,41.404089699764754,56.25821284384915,-64.375
1772305836.9766707,29.366044209780224,0.5627619394877907,-8.27511045428345,-0.2886044367688785,-1.4633050051461307,9.697346075587141,-0.005470893551142837,0.009808158549518749,-0.1090830782496456,41.404089699764754,56.25821284384915,-64.375
1772305836.9915237,29.198147421807494,0.5556088752130834,-8.266927114467528,-0.2916059243229466,-1.4489894981989166,9.691543619534881,-0.0054560068181094944,0.0010815249871502263,-0.08508480103472356,41.404089699764754,56.25821284384915,-64.375
1772305837.007136,29.198147421807494,0.5556088752130834,-8.266927114467528,-0.2916059243229466,-1.4489894981989166,9.691543619534881,-0.0054560068181094944,0.0010815249871502263,-0.08508480103472356,41.404089699764754,56.25821284384915,-64.375
1772305837.0317905,29.011905210662427,0.5439234159744654,-8.274928723745974,-0.2635145384183192,-1.4293760100677488,9.684337038142464,0.004350290889780087,0.007643247733589129,-0.11780972450961724,40.59105779012478,56.569326350317716,-64.375
1772305837.0489979,28.736828656581718,0.5376053382469821,-8.272636919263473,-0.24480291568268978,-1.4263587733336376,9.682886250435919,0.014156588597669668,0.014204970480028032,-0.1189005552921137,40.59105779012478,56.569326350317716,-64.375
1772305837.0729537,28.570530272203545,0.5323712731971928,-8.271621090204196,-0.2423744474831851,-1.4310581688893795,9.671885432301616,0.00870244262118934,0.014195666271882193,-0.1341721862470641,40.59105779012478,56.569326350317716,-64.375
1772305837.1259303,28.570530272203545,0.5323712731971928,-8.271621090204196,-0.2423744474831851,-1.4310581688893795,9.671885432301616,0.00870244262118934,0.014195666271882193,-0.1341721862470641,40.59105779012478,56.569326350317716,-64.375
1772305837.1603265,28.176726865996645,0.5702074068130488,-8.24951713975081,-0.2775545042647791,-1.4342483345999903,9.684635180964344,0.0130601768774861,0.01747559722428706,-0.10581058590215622,40.15035987555316,58.443577293519354,-64.0
1772305837.1850016,28.176726865996645,0.5702074068130488,-8.24951713975081,-0.2775545042647791,-1.4342483345999903,9.684635180964344,0.0130601768774861,0.01747559722428706,-0.10581058590215622,40.15035987555316,58.443577293519354,-64.0
1772305837.2096784,27.91641623865027,0.5718525819975018,-8.245740303042504,-0.26752678347703107,-1.4296240765056685,9.67304932603145,0.0043391258400050795,0.01418822290536552,-0.11562806294462433,40.15035987555316,58.443577293519354,-64.0
1772305837.2378056,27.603837773685424,0.6121651905896984,-8.268169204151404,-0.29095940887025407,-1.42659804205257,9.64861351045949,0.006513340864080539,0.018555261369808118,-0.11562806294462433,39.46168807380325,59.129903491092,-63.5625
1772305837.254396,27.603837773685424,0.6121651905896984,-8.268169204151404,-0.29095940887025407,-1.42659804205257,9.64861351045949,0.006513340864080539,0.018555261369808118,-0.11562806294462433,39.46168807380325,59.129903491092,-63.5625
1772305837.2894738,27.416690059818105,0.5901452222917041,-8.263703945658092,-0.2764418913435647,-1.4278779991147819,9.632351748162296,0.008719190195851852,0.004378203514217604,-0.06544984694978735,39.46168807380325,59.129903491092,-63.5625
1772305837.31541,27.25174783201512,0.5883581850134553,-8.276749590554322,-0.28685128664117526,-1.42876403467651,9.621529727009301,0.009834210332327098,-0.009800715183002079,-0.06981317007977318,39.46051527171462,59.81740249075328,-63.5625
1772305837.3504364,27.05071716026524,0.5705352795171399,-8.264071764355329,-0.25363734085051937,-1.4292852045754076,9.637743574773117,0.013069481085631938,0.012021451247806732,-0.11562806294462433,39.46051527171462,59.81740249075328,-63.5625
1772305837.373959,27.05071716026524,0.5705352795171399,-8.264071764355329,-0.25363734085051937,-1.4292852045754076,9.637743574773117,0.013069481085631938,0.012021451247806732,-0.11562806294462433,39.46051527171462,59.81740249075328,-63.5625
1772305837.3911223,26.849354077577342,0.5579329992316643,-8.242932751061062,-0.20477868263630253,-1.4262412792347094,9.648533709339388,0.009813741074406253,0.002198405965254641,-0.08617563181722002,37.95977112566997,60.25234301325345,-63.1875
1772305837.4259222,26.71394124277067,0.5481920752817582,-8.243833866161598,-0.17226379138171502,-1.424215580923349,9.71592643409129,-0.002196545123625473,0.008722911879110187,-0.0818123086872342,37.95977112566997,60.25234301325345,-63.1875
1772305837.4423532,26.71394124277067,0.5481920752817582,-8.243833866161598,-0.17226379138171502,-1.424215580923349,9.71592643409129,-0.002196545123625473,0.008722911879110187,-0.0818123086872342,37.95977112566997,60.25234301325345,-63.1875
1772305837.4670453,26.6279908846568,0.536776648476322,-8.252552074400441,-0.18742166970751825,-1.422930271789624,9.760775539587618,-0.007632082683814123,-0.0021946842819963053,-0.08944812416470939,37.95977112566997,60.25234301325345,-63.1875
1772305837.499406,26.34862208663544,0.5182185475864991,-8.260700592135366,-0.24098975092363648,-1.4254942030346085,9.72706499585902,0.007611613425893276,0.014193805430253024,-0.10035643198967395,37.64556568642229,61.25180846635684,-62.0
1772305837.5464678,26.12549081683119,0.5005020972595832,-8.254503096056705,-0.23318085368665128,-1.4104007531613054,9.704631005579087,-0.0022021276485129767,0.011995399464998382,-0.07744898555724837,37.64556568642229,61.25180846635684,-62.0
1772305837.5767074,26.12549081683119,0.5005020972595832,-8.254503096056705,-0.23318085368665128,-1.4104007531613054,9.704631005579087,-0.0022021276485129767,0.011995399464998382,-0.07744898555724837,37.64556568642229,61.25180846635684,-62.0
1772305837.6058328,25.693827062947,0.5144362382879069,-8.29658964111451,-0.2312745107275338,-1.3524346684368178,9.69425357770926,0.008683834204897663,0.025103958224842845,-0.11344640137963143,35.39610205211657,60.935470659675296,-60.375
1772305837.6467054,25.693827062947,0.5144362382879069,-8.29658964111451,-0.2312745107275338,-1.3524346684368178,9.69425357770926,0.008683834204897663,0.025103958224842845,-0.11344640137963143,35.39610205211657,60.935470659675296,-60.375
1772305837.682055,25.542837145537128,0.5308697538972696,-8.291487959633338,-0.22676682751481378,-1.3316744874544637,9.692830708449936,0.006524505913855547,0.012010286198031725,-0.08944812416470939,35.394182921426086,62.06046902275739,-60.75
1772305837.7021542,25.31766228758376,0.5418884694576688,-8.285914004097593,-0.22042190785081517,-1.31785311251131,9.688538693145027,0.004335404156746744,0.01636988129595765,-0.10362892433716332,35.394182921426086,62.06046902275739,-60.75
1772305837.7436056,25.05854083884237,0.551289932949547,-8.252341723630126,-0.21619943469182085,-1.3086551418815153,9.685682404904563,0.017436519550074536,0.009847236223731274,-0.08835729338221293,34.64418401270469,62.05918960229707,-61.5625
1772305837.7660904,25.05854083884237,0.551289932949547,-8.252341723630126,-0.21619943469182085,-1.3086551418815153,9.685682404904563,0.017436519550074536,0.009847236223731274,-0.08835729338221293,34.64418401270469,62.05918960229707,-61.5625
1772305837.8198872,24.79864987433224,0.570638132789014,-8.230952164390494,-0.2167573584359357,-1.2891592742210485,9.7071973589386,-0.006559861904809735,0.008715468512593517,-0.08617563181722002,34.64418401270469,62.05918960229707,-61.5625
1772305837.8396626,24.53242472929313,0.5827828957422604,-8.21126518951731,-0.21712865045522753,-1.276184992076119,9.724860432217788,0.006524505913855547,0.012010286198031725,-0.05126904677733343,33.581685558682715,62.057377089978274,-58.0
1772305837.8610518,24.4309483087697,0.597541874429555,-8.214199041064958,-0.21730155787088218,-1.311037141161602,9.763375903834186,0.0021667716575587883,0.008730355245626858,-0.08508480103472356,33.581685558682715,62.057377089978274,-58.0
1772305837.889722,24.4309483087697,0.597541874429555,-8.214199041064958,-0.21730155787088218,-1.311037141161602,9.763375903834186,0.0021667716575587883,0.008730355245626858,-0.08508480103472356,33.581685558682715,62.057377089978274,-58.0
1772305837.912845,24.30024052565886,0.6170471550796373,-8.21578293491206,-0.2675646963962427,-1.3510419873414556,9.778972184826932,-0.0032706267442590285,-0.0010964117201835689,-0.06981317007977318,33.581685558682715,62.057377089978274,-58.0
1772305837.9419405,24.172087079170606,0.6009800070876201,-8.217848612478244,-0.3009229511158012,-1.431186475031604,9.78935133560573,-1.1165049775006867e-05,0.006544975171776392,-0.12326387842209953,33.14237368294311,63.1191292153984,-58.75
1772305837.9720461,24.029942576414182,0.5893238421820062,-8.211886375424278,-0.30639696279527456,-1.4844932042877397,9.695905193286727,0.006541253488518057,0.0021928234403671377,-0.05890486225480862,33.14237368294311,63.1191292153984,-58.75
1772305838.002436,23.900481846671504,0.5923004608362112,-8.202747185408494,-0.3002099665083839,-1.3995272716731195,9.633717829435236,0.00544298092670532,0.006554279379922231,-0.08835729338221293,33.14237368294311,63.1191292153984,-58.75
1772305838.0373342,23.66658140041097,0.5549326067318261,-8.208174055416185,-0.29609258959273516,-1.3429833926497468,9.64250950908023,-0.009823045282552092,0.003255740011225686,-0.09599310885968812,32.58051421163222,62.74317019569246,-57.5625
1772305838.0649633,23.517190860480383,0.5470717603396155,-8.222732855820938,-0.29313567782855726,-1.4324681327182702,9.668430943918395,0.0021630499743004526,0.010912013636218989,-0.061086523819801536,32.58051421163222,62.74317019569246,-57.5625
1772305838.0938334,23.299715582941488,0.5698054142634289,-8.201273367623001,-0.3112385271206913,-1.492053466058712,9.685681369241793,0.016358716246182643,0.0022095710150296477,-0.09272061651219876,32.58168701372085,62.05567119603118,-56.375
1772305838.1311014,23.17061403048357,0.5674094817870781,-8.200360441307652,-0.2800675832550764,-1.3744126350268584,9.697161334594638,-0.00983234949069793,0.008709885987706013,-0.0818123086872342,32.58168701372085,62.05567119603118,-56.375
1772305838.1541314,23.17061403048357,0.5674094817870781,-8.200360441307652,-0.2800675832550764,-1.3744126350268584,9.697161334594638,-0.00983234949069793,0.008709885987706013,-0.0818123086872342,32.58168701372085,62.05567119603118,-56.375
1772305838.188773,23.01099912049086,0.6068748599858538,-8.205350455524027,-0.30281005723547355,-1.2961981593849288,9.678040229638786,0.008689416729785166,0.021831470638954648,-0.0719948316447661,31.45658203226706,62.11625197440081,-56.0625
1772305838.2195036,22.87216650276529,0.6450280601851481,-8.196359030794511,-0.25765881322279,-1.2875309731742213,9.648589789350806,0.0032408532781923434,0.018549678844920616,-0.04690572364734761,31.45658203226706,62.11625197440081,-56.0625
1772305838.2521193,22.87216650276529,0.6450280601851481,-8.196359030794511,-0.25765881322279,-1.2875309731742213,9.648589789350806,0.0032408532781923434,0.018549678844920616,-0.04690572364734761,31.45658203226706,62.11625197440081,-56.0625
1772305838.2991288,22.497302317664932,0.6952073703347567,-8.190552486707574,-0.2343104315416466,-1.2746249975914417,9.663874876482929,0.014171475330703011,0.005478336917659508,-0.07963064712224129,31.07966344721588,63.24061062725274,-56.0
1772305838.3411534,22.497302317664932,0.6952073703347567,-8.190552486707574,-0.2343104315416466,-1.2746249975914417,9.663874876482929,0.014171475330703011,0.005478336917659508,-0.07963064712224129,31.07966344721588,63.24061062725274,-56.0
1772305838.383696,22.326759268391093,0.6761056138890817,-8.192792255011282,-0.2723534775052482,-1.233135708212662,9.67595913384346,0.008728494403997691,-0.0010759424622627228,-0.08290313946973066,30.394083578245084,62.11443946208202,-55.5625
1772305838.4217188,22.212362680775986,0.6803372137861371,-8.184006348349593,-0.24749409702454228,-1.2054394535096054,9.680655960419575,0.01633638614663263,0.015299521358582433,-0.09599310885968812,30.394083578245084,62.11443946208202,-55.5625
1772305838.447141,22.212362680775986,0.6803372137861371,-8.184006348349593,-0.24749409702454228,-1.2054394535096054,9.680655960419575,0.01633638614663263,0.015299521358582433,-0.09599310885968812,30.394083578245084,62.11443946208202,-55.5625
1772305838.4635966,22.02424838614607,0.7001426447909803,-8.135596538521815,-0.28109282117803885,-1.2071641425196922,9.683781646038987,0.017425354500299528,0.016392211395507665,-0.0545415391248228,29.956584214824268,62.11369313348017,-54.5
1772305838.482159,21.873185386235722,0.7169435566048813,-8.13126758946831,-0.3033953327217111,-1.241762972190409,9.702587313439109,-0.012000981989885886,0.0010703599373752194,-0.044724062082354694,29.956584214824268,62.11369313348017,-54.5
1772305838.5173397,21.873185386235722,0.7169435566048813,-8.13126758946831,-0.3033953327217111,-1.241762972190409,9.702587313439109,-0.012000981989885886,0.0010703599373752194,-0.044724062082354694,29.956584214824268,62.11369313348017,-54.5
1772305838.5488997,21.873185386235722,0.7169435566048813,-8.13126758946831,-0.3033953327217111,-1.241762972190409,9.702587313439109,-0.012000981989885886,0.0010703599373752194,-0.044724062082354694,29.956584214824268,62.11369313348017,-54.5
1772305838.5841155,21.637607656887862,0.7221869638176432,-8.135819236960472,-0.3182374050186469,-1.2647881068420195,9.71510227502082,-1.1165049775006867e-05,0.006544975171776392,-0.04145156973486533,29.644724379753846,61.738160587261,-55.375
1772305838.6626163,21.502245275593435,0.7095601445062582,-8.158333679519677,-0.30469889045506676,-1.2800711319043623,9.723430842152167,-0.01416403196418634,-0.00984165369884377,-0.04799655442984406,29.644724379753846,61.738160587261,-55.375
1772305838.6828892,21.502245275593435,0.7095601445062582,-8.158333679519677,-0.30469889045506676,-1.2800711319043623,9.723430842152167,-0.01416403196418634,-0.00984165369884377,-0.04799655442984406,29.644724379753846,61.738160587261,-55.375
1772305838.7092602,21.32882107316815,0.7510565691483629,-8.142512228847432,-0.26562884993414376,-1.263429601988016,9.782495197858998,0.010917596161106493,-0.005435537560188649,-0.030543261909900768,28.145899364399686,61.04810274667908,-53.75
1772305838.7478206,21.2283465364912,0.7520666788490963,-8.148560044056808,-0.23955399113283857,-1.2958412386474627,9.821801866789809,0.0054597285013678306,-0.003263183377742357,-0.05999569303730508,28.145899364399686,61.04810274667908,-53.75
1772305838.7761955,21.2283465364912,0.7520666788490963,-8.148560044056808,-0.23955399113283857,-1.2958412386474627,9.821801866789809,0.0054597285013678306,-0.003263183377742357,-0.05999569303730508,28.145899364399686,61.04810274667908,-53.75
1772305838.7953153,21.12128841945015,0.7500465768964156,-8.14102465824347,-0.25584084366822873,-1.2070793591189675,9.814508898805808,0.020714589660850234,0.006580331162730581,-0.04799655442984406,28.89589827312108,61.0493821671394,-52.5
1772305838.86313,21.036289896847954,0.7452820874479148,-8.148547559061782,-0.3006061829478822,-1.1087444391271897,9.672715725750628,-0.026168735637330562,-0.00658963537087642,-0.020725784867432664,26.645475073470116,61.295543541998896,-52.1875
1772305838.9207482,20.8536114960194,0.7179285558975398,-8.188190976737319,-0.2729005744861166,-1.1728464688871878,9.651736614906483,0.001074081620633555,0.009819323599293757,-0.04145156973486533,26.645475073470116,61.295543541998896,-52.1875
1772305838.967829,20.8536114960194,0.7179285558975398,-8.188190976737319,-0.2729005744861166,-1.1728464688871878,9.651736614906483,0.001074081620633555,0.009819323599293757,-0.04145156973486533,26.645475073470116,61.295543541998896,-52.1875
1772305839.0449965,20.573958657782974,0.7305491147344534,-8.133976463251495,-0.2589182038192701,-1.2439233965642245,9.584997667069958,-0.004396811930509282,0.019627482148812506,-0.032724923474893676,25.960534914729482,59.794372922467474,-53.0
1772305839.1660612,20.452737328568073,0.7364421550792836,-8.09674127611114,-0.2619231691022336,-1.2394193391623267,9.549874774534263,0.023992659771625933,0.003313426101729888,0.006544984694978736,26.274207262118694,59.10740701466466,-51.0
1772305839.1904867,20.417732917502924,0.7238675533684332,-8.119979278836954,-0.273958260450547,-1.2364390584924236,9.640234679949035,-0.030509722318964812,-0.019687029080945873,0.008726646259971648,26.274207262118694,59.10740701466466,-51.0
1772305839.2538333,20.318469583355018,0.722998342835088,-8.155190443431158,-0.21851887105150278,-1.1707902633270246,9.700368187616284,-0.0043763426725884355,0.0076283610005557865,-0.026179938779914945,25.147289768346116,60.23048624705627,-51.375
1772305839.2953408,20.238022798443275,0.7407017082517445,-8.087265335674427,-0.19483951829661122,-1.2241326474743737,9.780527705721378,0.010871075120377298,0.021835192322212985,-0.019634954084936207,25.147289768346116,60.23048624705627,-51.375
1772305839.324115,20.238022798443275,0.7407017082517445,-8.087265335674427,-0.19483951829661122,-1.2241326474743737,9.780527705721378,0.010871075120377298,0.021835192322212985,-0.019634954084936207,25.147289768346116,60.23048624705627,-51.375
1772305839.3545344,20.193461966600484,0.7696271906951878,-8.067758009601478,-0.179081173553933,-1.2596314082509605,9.703413612994373,-1.860841629167811e-05,0.010908291952960654,-0.007635815477475192,24.08788324710325,58.416176371994105,-51.375
1772305839.3731318,20.193461966600484,0.7696271906951878,-8.067758009601478,-0.179081173553933,-1.2596314082509605,9.703413612994373,-1.860841629167811e-05,0.010908291952960654,-0.007635815477475192,24.08788324710325,58.416176371994105,-51.375
1772305839.4138489,20.1276365141621,0.7868988643520226,-8.071231721539622,-0.16859417115992556,-1.283255437000638,9.682201051071283,0.0021444415580087746,0.02182030558917964,-0.037088246604879506,24.08788324710325,58.416176371994105,-51.375
1772305839.4462204,20.070425123758746,0.7999498883581877,-8.047579012822055,-0.2605426030087837,-1.3352462815639043,9.658689806608956,0.006552418538293064,-0.004352151731409255,-0.00545415391248228,24.462882701463947,58.416816082224265,-50.5625
1772305839.5108385,20.070425123758746,0.7999498883581877,-8.047579012822055,-0.2605426030087837,-1.3352462815639043,9.658689806608956,0.006552418538293064,-0.004352151731409255,-0.00545415391248228,24.462882701463947,58.416816082224265,-50.5625
1772305839.5445988,20.004945534795343,0.8115590522061438,-8.059164670184051,-0.27964412673019023,-1.3503988336160293,9.652437857519441,-0.0022114318566588157,0.01744954544147871,-0.014180800172453928,24.085964116412764,59.5411747350762,-50.5625
