timestamp,yaw,pitch,roll,ax,ay,az,gx,gy,gz,mx,my,mz
1772056075.2589867,-0.008904885597331583,0.13960066702154517,-7.299920994848478,-0.027433547204855135,-1.1985669483797134,9.14519052969498,0.0,0.001090830782496456,0.0,17.0,32.25,-60.875
1772056075.2706735,-0.008904885597331583,0.13960066702154517,-7.299920994848478,-0.0282920543339873,-1.2124267669842124,9.350851165383796,0.0,0.001090830782496456,-0.002181661564992912,17.375,31.875,-60.0625
1772056075.2815123,-0.008904885597331583,0.13960066702154517,-7.299920994848478,-0.028863381238271747,-1.221650321441188,9.48771602105487,-0.001090830782496456,-0.001090830782496456,0.001090830782496456,17.375,31.875,-60.0625
1772056075.2923207,-0.008904885597331583,0.13960066702154517,-7.299920994848478,-0.028863381238271747,-1.221650321441188,9.48771602105487,-0.001090830782496456,-0.001090830782496456,0.001090830782496456,17.375,31.875,-60.0625
1772056075.3056066,-0.008904885597331583,0.13960066702154517,-7.299920994848478,-0.029243592910933352,-1.227788493898451,9.582143165330676,0.001090830782496456,0.001090830782496456,0.0,17.375,31.875,-60.0625
1772056075.3181877,-0.008904885597331583,0.13960066702154517,-7.299920994848478,-0.029243592910933352,-1.227788493898451,9.582143165330676,0.001090830782496456,0.001090830782496456,0.0,17.375,31.875,-60.0625
1772056075.3331084,-0.008904885597331583,0.13960066702154517,-7.299920994848478,-0.03284173123916636,-1.2318733791008802,9.648328486733227,-0.001090830782496456,-0.001090830782496456,-0.001090830782496456,17.0,31.1875,-60.0625
1772056075.3522508,-0.008904885597331583,0.13960066702154517,-7.299920994848478,-0.03284173123916636,-1.2318733791008802,9.648328486733227,-0.001090830782496456,-0.001090830782496456,-0.001090830782496456,17.0,31.1875,-60.0625
1772056075.3678045,-0.008904885597331583,0.13960066702154517,-7.299920994848478,-0.03284173123916636,-1.2318733791008802,9.648328486733227,-0.001090830782496456,-0.001090830782496456,-0.001090830782496456,17.0,31.1875,-60.0625
1772056075.3814805,-0.008904885597331583,0.13960066702154517,-7.299920994848478,-0.03523625210276668,-1.2345918245719394,9.692374078788141,0.0,0.0,-0.001090830782496456,17.0,31.1875,-60.0625
1772056075.4094105,2.6518012079794533e-07,0.13959650983335375,-7.299704196893158,-0.03523625210276668,-1.2345918245719394,9.692374078788141,0.0,0.0,-0.001090830782496456,17.0,31.1875,-60.0625
1772056075.4348547,2.6518012079794533e-07,0.13959650983335375,-7.299704196893158,-0.029946874412008665,-1.2397507006768838,9.721685928279184,-5.086093618564674e-07,0.003272492307965443,-0.001090830782496456,16.99509436442147,31.565141751533602,-60.875
1772056075.4532928,2.6518012079794533e-07,0.13959650983335375,-7.299704196893158,-0.029946874412008665,-1.2397507006768838,9.721685928279184,-5.086093618564674e-07,0.003272492307965443,-0.001090830782496456,16.99509436442147,31.565141751533602,-60.875
1772056075.4732497,2.6518012079794533e-07,0.13959650983335375,-7.299704196893158,-0.026555066643388702,-1.2398351288672622,9.74119263668066,-3.3907290790431153e-07,0.0021816615386436285,-0.001090830782496456,16.99509436442147,31.565141751533602,-60.875
1772056075.503763,2.6518012079794533e-07,0.13959650983335375,-7.299704196893158,-0.026555066643388702,-1.2398351288672622,9.74119263668066,-3.3907290790431153e-07,0.0021816615386436285,-0.001090830782496456,16.99509436442147,31.565141751533602,-60.875
1772056075.5333445,2.6518012079794533e-07,0.13959650983335375,-7.299704196893158,-0.024297856462347486,-1.2398913148848343,9.754174133217631,0.00109049169641391,0.002181831075097581,0.0,16.557409808963012,32.75257374112843,-61.25
1772056075.5785952,2.6518012079794533e-07,0.13959650983335375,-7.299704196893158,-0.024297856462347486,-1.2398913148848343,9.754174133217631,0.00109049169641391,0.002181831075097581,0.0,16.557409808963012,32.75257374112843,-61.25
1772056075.616844,2.6518012079794533e-07,0.13959650983335375,-7.299704196893158,-0.022795708301554418,-1.2399287060518895,9.75946806244285,-0.0010908307693218143,-1.6953645395215576e-07,0.0,16.557409808963012,32.75257374112843,-61.25
1772056075.6704717,33.01520832614453,0.13946192164892482,-7.294723886697475,-0.025141157147559462,-1.23995410935171,9.762991113205167,-3.3907290790431153e-07,0.0021816615386436285,0.001090830782496456,16.24490981273727,32.75252517251201,-59.6875
1772056075.6855898,33.01520832614453,0.13946192164892482,-7.294723886697475,-0.02670202715419548,-1.2399710149639669,9.765335664132435,-1.6953645395215576e-07,0.0010908307693218143,-0.002181661564992912,16.24490981273727,32.75252517251201,-59.6875
1772056075.720832,33.01520832614453,0.13946192164892482,-7.294723886697475,-0.02670202715419548,-1.2399710149639669,9.765335664132435,-1.6953645395215576e-07,0.0010908307693218143,-0.002181661564992912,16.24490981273727,32.75252517251201,-59.6875
1772056075.7549324,33.0372682432384,0.14086903129899825,-7.2947441979138015,-0.027740248811719596,-1.2433273771269944,9.77358615999882,0.0,0.0,0.0,16.55746809130272,32.377573745657536,-60.5
1772056075.7914357,33.0372682432384,0.14086903129899825,-7.2947441979138015,-0.027740248811719596,-1.2433273771269944,9.77358615999882,0.0,0.0,0.0,16.55746809130272,32.377573745657536,-60.5
1772056075.8292844,33.05306073643627,0.13516002612190467,-7.2968833171843706,-0.028431173727106067,-1.245560998653467,9.772386549419181,0.0,0.0,-0.002181661564992912,16.55746809130272,32.377573745657536,-60.5
1772056075.8612342,33.06644434563468,0.1360086767664888,-7.296614296001687,-0.02889097654015874,-1.2470474488281473,9.771588221978961,-0.0010908307693218143,-1.6953645395215576e-07,0.0,16.24502637741669,32.00252518157022,-60.5
1772056075.9026816,33.234672859875296,0.14002054941666167,-7.298468958556681,-0.029196970175911326,-1.2480366648146608,9.767711832278078,-0.001090661232867862,-0.0010910003057757664,-0.001090830782496456,16.24502637741669,32.00252518157022,-60.5
1772056076.0557237,33.483021014877366,0.1404166551846084,-7.295405778663099,-0.029536468555487142,-1.2469069419642198,9.768986626846347,3.3907290790431153e-07,-0.0021816615386436285,0.001090830782496456,16.995201215377605,30.877641759836965,-60.0625
1772056076.0886729,33.514202504167564,0.1357000591651265,-7.297718681665796,-0.02293683446348905,-1.2445970076076995,9.769325611486364,0.0021814920021896765,0.0010911698422297186,0.0,16.557574942258857,31.690073753960903,-60.875
1772056076.1610274,33.514202504167564,0.1357000591651265,-7.297718681665796,-0.02293683446348905,-1.2445970076076995,9.769325611486364,0.0021814920021896765,0.0010911698422297186,0.0,16.557574942258857,31.690073753960903,-60.875
1772056076.198916,33.82875064302178,0.14030885283674274,-7.294697552033504,-0.018544851698007653,-1.2430597720970928,9.769551201977588,1.6953645395215576e-07,-0.0010908307693218143,-0.002181661564992912,16.557574942258857,31.690073753960903,-60.875
1772056076.279279,34.0750442847709,0.20280739714493162,-7.3752714455550015,-0.013675895393103012,-1.2480461786068662,9.714088776592495,-0.007630898828088087,-0.03163527906551028,0.16907877128695067,16.875874226864113,-2016.3099015110697,-60.0625
1772056076.326993,34.0750442847709,0.20280739714493162,-7.3752714455550015,-0.013675895393103012,-1.2480461786068662,9.714088776592495,-0.007630898828088087,-0.03163527906551028,0.16907877128695067,16.875874226864113,-2016.3099015110697,-60.0625
1772056076.34505,34.27763251766892,0.332777423647445,-7.302089004757282,-0.012375561448152947,-1.2854964968702942,9.699340588318401,0.01199846031672415,0.004365187978280731,-0.06544984694978735,17.370142928508784,31.252700037647568,-59.25
1772056076.3631363,34.30583257574727,0.3737790386358541,-7.334119798836384,0.1691258262801225,-1.3103911909522263,9.722976950843243,-0.019637157821694038,0.014177748345012448,0.0272707695624114,17.370142928508784,31.252700037647568,-59.25
1772056076.423459,34.30583257574727,0.3737790386358541,-7.334119798836384,0.1691258262801225,-1.3103911909522263,9.722976950843243,-0.019637157821694038,0.014177748345012448,0.0272707695624114,17.370142928508784,31.252700037647568,-59.25
1772056076.506373,34.57383269434244,0.41310122411550443,-7.333470984594659,-0.08473953438491864,-1.3270165601049508,9.738706686068056,0.005455340601786737,-0.0076349677029829395,0.03599741582238305,18.495074918858464,31.69037487938274,-59.25
1772056076.5746331,34.73298095271283,0.4542422511002519,-7.337941494404995,-0.051935350218842484,-1.2629567981452052,9.750569715460887,0.0076353067758908435,0.003273679063143108,0.003272492347489368,16.557409808963012,32.75257374112843,-59.6875
1772056076.635894,34.73298095271283,0.4542422511002519,-7.337941494404995,-0.051935350218842484,-1.2629567981452052,9.750569715460887,0.0076353067758908435,0.003273679063143108,0.003272492347489368,16.557409808963012,32.75257374112843,-59.6875
1772056076.6986153,34.79818944636579,0.4738995947910641,-7.3402475035242425,-0.028474809551896945,-1.1855390393624814,9.762513782548137,-0.005455171065332784,0.006544136933661126,0.032724923474893676,16.24514294209611,31.25252519062844,-60.5
1772056076.7463307,34.935758709757465,0.5073628724810253,-7.324651236889026,-0.028474809551896945,-1.1855390393624814,9.762513782548137,-0.005455171065332784,0.006544136933661126,0.032724923474893676,16.24514294209611,31.25252519062844,-60.5
1772056076.8082337,35.10365227922796,0.5156442381825938,-7.3392063242365335,-0.02223759079775201,-1.1569257906137749,9.731566888839119,-0.018543614469108988,-0.00327537442768263,0.015271630954950384,17.745259488659094,30.502758329045495,-60.5
1772056076.8541832,35.07273763293122,0.5160999455306772,-7.323617802335966,-0.021430863266422243,-1.1445747364321108,9.757803640677693,0.014182834438631012,-0.013087765257960396,0.013089969389957472,17.745259488659094,30.502758329045495,-60.5
1772056076.8822339,35.07273763293122,0.5160999455306772,-7.323617802335966,-0.021430863266422243,-1.1445747364321108,9.757803640677693,0.014182834438631012,-0.013087765257960396,0.013089969389957472,17.745259488659094,30.502758329045495,-60.5
1772056076.9064388,35.10996965769883,0.523064005702492,-7.314868685424221,-0.044310816566151455,-1.1296686637815139,9.72843234204007,0.014181986756361252,-0.007633611411351322,-0.009817477042468103,17.37007493244579,31.69020003236361,-58.5
1772056076.932868,35.10996965769883,0.523064005702492,-7.314868685424221,-0.044310816566151455,-1.1296686637815139,9.72843234204007,0.014181986756361252,-0.007633611411351322,-0.009817477042468103,17.37007493244579,31.69020003236361,-58.5
1772056076.9701216,35.175930831707326,0.5318483923231787,-7.305867979148757,-0.059524692401334865,-1.200031518950325,9.75571763479811,0.002179627101196203,0.013090308304769677,0.02399827721492203,17.37007493244579,31.69020003236361,-58.5
1772056076.9981387,35.07999673731309,0.5412043312432174,-7.3088085807684235,-0.06965559556950136,-1.2067158730575545,9.713663681600144,-0.007636323994614557,0.003271305552787778,0.015271630954950384,15.870074950562222,31.689966903004766,-59.25
1772056077.0522206,35.08665310200199,0.5416194586104667,-7.308642802273034,-0.10650360346057812,-1.2111689151092733,9.695712580642294,0.003271136016333826,0.008727154763936372,0.018544123302439753,15.870074950562222,31.689966903004766,-59.25
1772056077.0876048,35.02878330004817,0.5446238444726302,-7.307038945688813,-0.06747049900474857,-1.2007420401624767,9.683766323481782,0.006544136933661126,0.005455171065332784,0.004363323129985824,15.870201228964929,30.877466912817834,-58.875
1772056077.116221,34.93983701989051,0.5502047252495621,-7.296518075044508,-0.06491018568616931,-1.193806710632031,9.70592222815577,0.011998799389632053,0.002183526439637102,0.013089969389957472,15.870201228964929,30.877466912817834,-58.875
1772056077.2110102,34.917435200490175,0.5558396065364809,-7.27243767398639,-0.06320008702324792,-1.2293326663052468,9.750772740584514,-0.004364170759557018,0.005453475700793263,0.019634954084936207,15.870142946625217,31.252466908288728,-58.0625
1772056077.2349725,34.99071994487391,0.5538073817015348,-7.2741161573872875,-0.10219817651083096,-1.286432148374009,9.750514250226916,-0.011998968926086005,-0.001092695670315288,0.028361600344907856,15.870142946625217,31.252466908288728,-58.0625
1772056077.3136404,35.02577425812037,0.56023343923627,-7.287015683082788,-0.12815512859426745,-1.297670322512415,9.70016555217167,-0.004362305858563544,-0.006545662761746695,0.025089107997418487,15.8704149308772,29.502466929424564,-58.0625
1772056077.37891,35.032632711274225,0.5920012796313749,-7.27011361832521,-0.12870363191304884,-1.305146602383735,9.666659056047713,0.0032685929695245434,0.025089616303763586,-0.00545415391248228,15.8704149308772,29.502466929424564,-58.0625
1772056077.4201891,35.14155896497075,0.5904344096548603,-7.242615903341819,-0.1290686547445143,-1.3101219831225799,9.73467887326693,-0.006543628324299269,-0.008727663373298227,0.02399827721492203,16.24548292241109,29.065025217048234,-58.5
1772056077.4561532,35.14155896497075,0.5904344096548603,-7.242615903341819,-0.1290686547445143,-1.3101219831225799,9.73467887326693,-0.006543628324299269,-0.008727663373298227,0.02399827721492203,16.24548292241109,29.065025217048234,-58.5
1772056077.5220118,35.062775125470964,0.5745608221954653,-7.232010914339373,-0.13601115482009013,-1.2532220732127692,9.779945301795175,-1.525828085569402e-06,0.00981747692389633,0.004363323129985824,15.495648064765149,28.002408665201287,-58.875
1772056077.6310742,34.87013830713864,0.5736332002352861,-7.22178301738942,-0.16070458054824746,-1.1986333798218294,9.82345005115086,-0.008726137545212658,-0.0032738485995970606,-0.018544123302439753,15.495648064765149,28.002408665201287,-58.875
1772056077.7061026,34.87112288404101,0.5582239127632168,-7.219300370819525,-0.15707906712931594,-1.0853645264517064,9.842366640745217,-0.0032716446256956825,-0.0054546624559709276,0.008726646259971648,14.370541227396338,28.689733809878792,-59.6875
1772056077.7389612,34.819336053795034,0.5704339275561692,-7.222119031113406,-0.16306197490711105,-1.0267251724901658,9.856642888233951,0.003274187672504965,-0.010907799083856286,-0.04799655442984406,15.495648064765149,28.002408665201287,-59.25
1772056077.831247,34.58620523443401,0.5427814148579706,-7.205342106324228,-0.2422559223726736,-1.0980887755516782,9.831004985962535,0.0010898135505981014,0.006545154152384838,-0.04581489286485115,15.495648064765149,28.002408665201287,-59.25
1772056077.860803,34.47642794059521,0.5270896628064883,-7.201117520110181,-0.17787502235201802,-1.17566826485359,9.810598136687721,-3.3907290790431153e-07,0.0021816615386436285,-0.05890486225480862,13.683148086655839,28.002126967226022,-58.0625
1772056077.9566967,34.277061095623715,0.528421047493285,-7.175570231712628,-0.15175737059213495,-1.2172638128427369,9.800362718162095,-0.00218098339282782,-0.004363662150195162,-0.0545415391248228,13.683148086655839,28.002126967226022,-58.0625
1772056077.9965053,34.042694973129514,0.5209696586444883,-7.152454867011168,-0.12099591843154588,-1.2449431057934708,9.753409820982576,-3.3907290790431154e-06,0.021816615386436287,-0.04254240051736178,13.683216082718834,27.56462697250998,-58.875
1772056078.0217595,34.042694973129514,0.5209696586444883,-7.152454867011168,-0.12099591843154588,-1.2449431057934708,9.753409820982576,-3.3907290790431154e-06,0.021816615386436287,-0.04254240051736178,13.683216082718834,27.56462697250998,-58.875
1772056078.1114395,33.74929642854949,0.534133882749317,-7.137034067392743,-0.04677786926546975,-1.1586194363479387,9.703500484668815,0.013090138768315725,-0.0010887963318743884,-0.0545415391248228,14.058216078189727,27.564685254849692,-58.5
1772056078.1763394,33.50833545895196,0.523796122890922,-7.129432549266358,-0.011001251118468829,-1.1456976795822804,9.772576879297828,0.004363153540833305,0.001091508915137623,-0.08944812416470939,14.058216078189727,27.564685254849692,-58.5
1772056078.2059922,33.50833545895196,0.523796122890922,-7.129432549266358,-0.011001251118468829,-1.1456976795822804,9.772576879297828,0.004363153540833305,0.001091508915137623,-0.08944812416470939,14.058216078189727,27.564685254849692,-58.5
1772056078.2465003,33.32672321846834,0.5192109059571345,-7.12846181985671,-0.01394020733220479,-1.2207303456398295,9.771714884387077,0.0021794575647422505,0.014181139074091492,-0.06763150851478027,14.058381211485573,26.502185267682165,-58.875
1772056078.2777247,33.32672321846834,0.5192109059571345,-7.12846181985671,-0.01394020733220479,-1.2207303456398295,9.771714884387077,0.0021794575647422505,0.014181139074091492,-0.06763150851478027,14.058381211485573,26.502185267682165,-58.875
1772056078.3265905,33.004348635254054,0.501842307637931,-7.114149966555358,-0.01590904725794705,-1.1870359550583696,9.771141236403086,-0.009815442486448904,-0.013091495059947342,-0.05781403147231216,14.058381211485573,26.502185267682165,-58.875
1772056078.3694398,32.731071967510594,0.5473382673887708,-7.104290073967916,-0.017229166255948183,-1.1010555928459633,9.733963251297295,0.005450932653983981,0.020726632299384234,-0.061086523819801536,13.683614345373522,25.002127003458885,-59.6875
1772056078.4536932,32.40779379619098,0.5763233151958489,-7.098814968386214,0.001962979299087854,-1.043833502882195,9.709221717514696,-0.0010942214984008573,0.021816445849982335,-0.06763150851478027,13.683614345373522,25.002127003458885,-59.6875
1772056078.4833322,32.40779379619098,0.5763233151958489,-7.098814968386214,0.001962979299087854,-1.043833502882195,9.709221717514696,-0.0010942214984008573,0.021816445849982335,-0.06763150851478027,13.683614345373522,25.002127003458885,-59.6875
1772056078.5004613,32.292277358856076,0.575024104793364,-7.119775218510072,-0.035428019936500084,-1.0927335430012892,9.719517396821974,-0.008726646154574514,-1.3562916316172461e-06,-0.06654067773228381,12.996230918356309,24.252020161560967,-61.0
1772056078.5275161,32.292277358856076,0.575024104793364,-7.119775218510072,-0.035428019936500084,-1.0927335430012892,9.719517396821974,-0.008726646154574514,-1.3562916316172461e-06,-0.06654067773228381,12.996230918356309,24.252020161560967,-61.0
1772056078.58552,32.08049515516461,0.5907365492185562,-7.119973614551442,-0.08372709391138321,-1.1252796127221283,9.726369056390693,0.005452797554977454,0.008727493836844276,-0.06872233929727672,12.996230918356309,24.252020161560967,-61.0
1772056078.6466799,31.672941622897387,0.5807740691049045,-7.124931621999804,-0.11586802841816453,-1.1569739935586814,9.680752083685833,0.004360780030477975,0.016363139685643024,-0.07308566242726255,12.996396051652155,23.18952017439344,-60.5
1772056078.6897144,31.425141866468017,0.5720788620416241,-7.1241143925357235,-0.13725746129466387,-1.1780662499559753,9.650394497925722,-0.0010935433525850488,0.017453122772695076,-0.10253809355466686,12.996396051652155,23.18952017439344,-60.5
1772056078.7248685,31.425141866468017,0.5720788620416241,-7.1241143925357235,-0.13725746129466387,-1.1780662499559753,9.650394497925722,-0.0010935433525850488,0.017453122772695076,-0.10253809355466686,12.996396051652155,23.18952017439344,-60.5
1772056078.742694,31.22200872449715,0.557543326954021,-7.1183303488302645,-0.09462499160074057,-1.1920940727432927,9.646917422255418,0.005451441263345837,0.01745413999141879,-0.07635815477475191,12.996289200696019,23.877020166090073,-61.25
1772056078.7662585,31.084869012628605,0.5490228891530382,-7.119115892933479,-0.05957113435896448,-1.1512517173117653,9.644603467238312,0.004362136322109592,0.007636493531068509,-0.08399397025222712,12.996289200696019,23.877020166090073,-61.25
1772056078.8565056,31.274911195636,0.5281765646060567,-7.105447139755819,-0.03624318394180515,-1.1240715860110881,9.63302822090104,0.00327147508924173,0.006545493225292743,-0.09053895494720585,13.246522327035455,22.37705903909965,-62.5
1772056078.9031446,31.42819355944039,0.5242041328157416,-7.1085598745766445,-0.1277612270791914,-1.1126903722529002,9.625325023767559,-0.007638867041423839,0.019633767092614992,-0.06654067773228381,13.246522327035455,22.37705903909965,-62.5
1772056078.9744415,31.42819355944039,0.5242041328157416,-7.1085598745766445,-0.1277612270791914,-1.1126903722529002,9.625325023767559,-0.007638867041423839,0.019633767092614992,-0.06654067773228381,13.246522327035455,22.37705903909965,-62.5
1772056079.0279326,31.705992223721275,0.5144998926055133,-7.115003431667213,-0.18866546246359456,-1.105116301633314,9.580057291637745,0.006546510444016456,-0.009816459705172616,-0.08072147790473774,12.99646404771515,22.752020179677398,-62.5
1772056079.0573177,31.844643290613543,0.4990462299202576,-7.106523611277116,-0.1455635601357505,-1.133513961517283,9.57334790353029,0.008724950790034993,0.01090966398484976,-0.08399397025222712,12.99646404771515,22.752020179677398,-62.5
1772056079.0906315,31.844643290613543,0.4990462299202576,-7.106523611277116,-0.1455635601357505,-1.133513961517283,9.57334790353029,0.008724950790034993,0.01090966398484976,-0.08399397025222712,12.99646404771515,22.752020179677398,-62.5
1772056079.1274226,31.92534488753763,0.48672478930897867,-7.0965265505166215,-0.11687972561636725,-1.1524122869474178,9.568882880693556,0.015272647989229114,-0.006542611105575556,-0.07090400086226964,11.746522345151888,22.376825909740806,-64.0625
1772056079.185112,32.34110709305058,0.472984513132271,-7.08414696077696,-0.10849155167213029,-1.1733621519385837,9.601825575207288,-0.0010920175244994793,0.007635645848798748,-0.05235987755982989,12.184070908484355,22.064393909578058,-63.6875
1772056079.2360747,32.656058192189896,0.47034628739044254,-7.082202288093518,-0.14238435331740934,-1.185628834310653,9.604560011614758,-0.001091847988045527,0.006544815079476934,-0.06435901616729091,12.184070908484355,22.064393909578058,-63.6875
1772056079.2524686,32.54546147954399,0.46741152651157913,-7.095800238776152,-0.16493963420494073,-1.1937921744014441,9.616415083620232,0.0010901526235060056,0.00436349261374121,-0.04908738521234052,12.18419718688706,21.251893919391126,-64.5
1772056079.302051,33.00044536209599,0.4580637144529425,-7.090733598352899,-0.1799499216765963,-1.1992247860413818,9.59085338453685,0.013089630158953869,0.0021836959760910546,-0.061086523819801536,12.18419718688706,21.251893919391126,-64.5
1772056079.3389847,33.13235984770341,0.4420817154491789,-7.082647180929831,-0.17989700666651787,-1.2463250203839562,9.617328811534898,0.008725968008758706,0.004364679368918874,-0.07090400086226964,11.49662919912743,21.68928706315103,-64.5
1772056079.4040363,33.13235984770341,0.4420817154491789,-7.082647180929831,-0.17989700666651787,-1.2463250203839562,9.617328811534898,0.008725968008758706,0.004364679368918874,-0.07090400086226964,11.49662919912743,21.68928706315103,-64.5
1772056079.4314535,33.44788217892279,0.4307329559040325,-7.076126096630615,-0.1798617923184101,-1.2776697001948472,9.718575705135187,0.007638867041423839,-0.019633767092614992,-0.03490658503988659,11.49662919912743,21.68928706315103,-64.5
1772056079.502519,33.54754374828782,0.4710804856542613,-7.043523915468391,-0.17983315860479715,-1.331980351135163,9.78595438182427,0.018545309833648507,-0.007632933265535514,-0.04799655442984406,11.49662919912743,21.68928706315103,-66.0625
1772056079.5554109,34.40406790187776,0.4598467914329146,-7.022673775800448,-0.19988477318975764,-1.3681266020212108,9.83079413849172,0.0010908307693218143,1.6953645395215576e-07,-0.06326818538479445,11.49662919912743,21.68928706315103,-66.0625
1772056079.6108742,34.29346818022567,0.4576810057283457,-7.014236528554575,-0.21322889870483738,-1.3921815282057963,9.803767596636577,3.3907290790431153e-07,-0.0021816615386436285,-0.04799655442984406,12.559304033314088,20.5644522100342,-66.0625
1772056079.6393266,34.003339122934754,0.41831065940864987,-6.992865272613531,-0.13515975714402317,-1.2576462705675535,9.85937419249926,0.0021816615386436285,3.3907290790431153e-07,-0.06763150851478027,12.559304033314088,20.5644522100342,-66.0625
1772056079.6941786,33.83604738115735,0.3993466259876465,-6.988825303817046,-0.08319313802479307,-1.2483972394726435,9.822787303318472,-0.008726985227482418,0.0021803052470120115,-0.05126904677733343,11.059362333770231,20.189219085204467,-68.0625
1772056079.7689385,33.763708606636136,0.3861904872661989,-6.984437545644824,-0.04861045340194907,-1.2388970009305098,9.84861581288078,-2.7125832632344922e-06,0.017453292309149028,-0.022907446432425576,11.059362333770231,20.189219085204467,-68.0625
1772056079.79789,33.60963597276618,0.37006584136507314,-6.986705533609493,-0.11925866987722922,-1.2359343670555443,9.75207059942228,-0.0021818310750975805,0.0010904916964139101,-0.05235987755982989,11.496862328486271,20.189287081267462,-68.5625
1772056079.8914971,33.465330122882705,0.3700057853513878,-6.992260682398448,-0.13951389530972458,-1.2306134964729714,9.764758407614694,0.008726137545212658,0.0032738485995970606,-0.055632369907319255,11.496862328486271,20.189287081267462,-68.5625
1772056079.9429948,33.28785261044933,0.37457920860341726,-6.9951863238617795,-0.15299456136102002,-1.2203822932044515,9.759821555405363,0.0010901526235060056,0.00436349261374121,-0.02945243112740431,10.684430334362334,19.751660808148717,-69.75
1772056079.9769542,33.50174608209815,0.35743362860113354,-6.967208054565055,-0.12182445402622967,-1.2135673029693,9.769916582237585,0.0065446455430229825,0.0021826787573673415,-0.050178215994836975,10.684430334362334,19.751660808148717,-69.75
1772056080.0450299,33.95355177590261,0.3679879490477522,-6.934076459412806,-0.10107641672535472,-1.2391380080985008,9.806740715191463,-1.6953645395215576e-07,0.0010908307693218143,-0.05126904677733343,11.746969176423002,19.50182594446397,-70.0625
1772056080.0752125,33.95355177590261,0.3679879490477522,-6.934076459412806,-0.10107641672535472,-1.2391380080985008,9.806740715191463,-1.6953645395215576e-07,0.0010908307693218143,-0.05126904677733343,11.746969176423002,19.50182594446397,-70.0625
1772056080.1158576,34.30745516114538,0.3430628072670433,-6.925354288702884,-0.08726778988072192,-1.2628452500523286,9.83124676431975,-0.002176744981479016,-0.03163443138324052,-0.04581489286485115,11.746969176423002,19.50182594446397,-70.0625
1772056080.1759775,34.13910227506397,0.34216169495720844,-6.908436932180801,-0.17843269276730284,-1.271947528286471,9.837519931142163,0.00436196678565564,0.008727324300390324,-0.05235987755982989,11.496969179442408,19.50178708957083,-71.75
1772056080.2411363,34.037036033825416,0.3421575200636224,-6.928884233967027,-0.14543775079425178,-1.284680659022731,9.841694653586613,-0.033816940604153904,0.0076305597551801834,-0.04036073895236887,11.496969179442408,19.50178708957083,-71.75
1772056080.2854452,33.954822383283826,0.37774880053937404,-6.989933605988107,-0.12349558236379003,-1.1928010652817704,9.844472884738689,-0.022909311056751577,0.011995578197006963,0.0,10.371969193029733,19.501612242551698,-73.0
1772056080.3447628,33.904298922579436,0.3376216088225189,-6.964497438020506,-0.10889435417506285,-1.1249659986756364,9.876427771901394,-0.016352119816136133,-0.06654321997543995,-0.001090830782496456,10.371969193029733,19.501612242551698,-73.0
1772056080.3758173,33.82238081844441,0.48801128651092973,-6.87391947371875,-0.08579695325419742,-1.0798204400332727,9.750508477226644,-0.013106583804349084,0.10689938095609038,-0.04036073895236887,11.059469184726368,19.501719093507834,-73.75
1772056080.396242,33.712086934679334,0.4819868196956876,-6.852136540284525,-0.030257516369965484,-1.2237161429954888,9.95773531176807,0.021803900152389876,0.08181569842821512,0.017453292519943295,11.059469184726368,19.501719093507834,-73.75
1772056080.4285865,33.712086934679334,0.4819868196956876,-6.852136540284525,-0.030257516369965484,-1.2237161429954888,9.95773531176807,0.021803900152389876,0.08181569842821512,0.017453292519943295,11.059469184726368,19.501719093507834,-73.75
1772056080.4791632,33.689025870292426,0.4954290384776288,-6.876902974391937,0.030119140128758166,-1.319473486625697,9.801272625035866,0.013085391747605065,0.029454465209136412,-0.017453292519943295,10.68453718531847,19.06416081645208,-75.0
1772056080.5148585,33.42275212096847,0.5404900714647702,-6.837844936373574,0.07029185203556958,-1.336367365795126,9.787466470915938,-0.004374682019702051,0.07308498339874575,-0.07090400086226964,10.68453718531847,19.06416081645208,-75.0
1772056080.5533206,33.42275212096847,0.5404900714647702,-6.837844936373574,0.07029185203556958,-1.336367365795126,9.787466470915938,-0.004374682019702051,0.07308498339874575,-0.07090400086226964,10.68453718531847,19.06416081645208,-75.0
1772056080.571414,33.36392785151888,0.5262240451137542,-6.826509227998369,0.07693539711200917,-1.2171538180305586,9.778278629573972,0.004358236983668692,0.03272560122547023,-0.04581489286485115,11.497037175505403,19.064287094854787,-75.75
1772056080.593458,33.36392785151888,0.5262240451137542,-6.826509227998369,0.07693539711200917,-1.2171538180305586,9.778278629573972,0.004358236983668692,0.03272560122547023,-0.04581489286485115,11.497037175505403,19.064287094854787,-75.75
1772056080.6719525,33.15192571836144,0.5464560901200847,-6.839844330227826,-0.008212424244441774,-1.0683106075308115,9.85166384777074,-0.00654837534500993,0.02181559816771257,-0.0545415391248228,11.746930321529861,19.75182594144456,-77.0
1772056080.7234232,33.15192571836144,0.5464560901200847,-6.839844330227826,-0.008212424244441774,-1.0683106075308115,9.85166384777074,-0.00654837534500993,0.02181559816771257,-0.0545415391248228,11.746930321529861,19.75182594144456,-77.0
1772056080.7674224,32.885835867215114,1.379992119285051,-6.576708963180221,-0.07040493327269447,-1.033561301931796,9.750430805969334,0.005454662455970928,-0.0032716446256956825,-0.04690572364734761,12.184070908484355,22.064393909578058,-77.75
1772056080.8222127,32.75958762307267,0.5111548434295834,-6.801470467803068,-0.13711348329198522,-1.0624900446816807,9.743596473145535,0.0054568664298723065,-0.017452444626879268,-0.06654067773228381,12.184070908484355,22.064393909578058,-77.75
1772056080.862081,32.75958762307267,0.5111548434295834,-6.801470467803068,-0.13711348329198522,-1.0624900446816807,9.743596473145535,0.0054568664298723065,-0.017452444626879268,-0.06654067773228381,12.184070908484355,22.064393909578058,-77.75
1772056080.9068885,32.612925214312156,0.5186764009582566,-6.782782411749332,-0.1487176877223112,-1.10355485796666,9.970013882846716,-0.0032728313808733475,0.002181152929281772,-0.04581489286485115,10.684070926600787,22.06416078021922,-79.75
1772056080.9297278,32.55372846776878,0.5112220933166298,-6.769381937204369,-0.0989236891647509,-1.0321183688170512,9.980044574001367,0.0011132095812434988,-0.14398949201402556,-0.0545415391248228,10.684070926600787,22.06416078021922,-79.75
1772056080.9645705,32.55372846776878,0.5112220933166298,-6.769381937204369,-0.0989236891647509,-1.0321183688170512,9.980044574001367,0.0011132095812434988,-0.14398949201402556,-0.0545415391248228,10.684070926600787,22.06416078021922,-79.75
1772056081.007264,32.35915864261379,0.4969140116498303,-6.785936496176474,-0.04370349740906022,-1.1479343348602564,9.843012000643952,0.004364848905372826,-0.00981679877808052,-0.05672320068981571,10.683896079581656,23.189160766631893,-81.375
1772056081.060976,32.35915864261379,0.4969140116498303,-6.785936496176474,-0.04370349740906022,-1.1479343348602564,9.843012000643952,0.004364848905372826,-0.00981679877808052,-0.05672320068981571,10.683896079581656,23.189160766631893,-81.375
1772056081.0983274,32.24885022482548,0.4903551614845282,-6.7861504503254055,-0.035706826201388306,-1.198803033073817,9.771757106928591,-0.004362305858563544,-0.006545662761746695,-0.028361600344907856,9.55866296381014,24.688985901496327,-82.1875
1772056081.1199021,32.20487249352055,0.48579745731076934,-6.779523844382072,-0.07721669417821059,-1.232662862035994,9.724337771130337,0.002182339684459437,-0.004362984004379353,-0.04036073895236887,9.55866296381014,24.688985901496327,-82.1875
1772056081.1521106,32.20487249352055,0.48579745731076934,-6.779523844382072,-0.07721669417821059,-1.232662862035994,9.724337771130337,0.002182339684459437,-0.004362984004379353,-0.04036073895236887,9.55866296381014,24.688985901496327,-82.1875
1772056081.1785893,32.11870578494757,0.4787689743160015,-6.773359623546933,-0.07808015428583072,-1.2551920408045962,9.692780732865286,0.0021818310750975805,-0.0010904916964139101,-0.02181661564992912,11.05849781239786,25.751719018022698,-83.375
1772056081.2202682,31.98532579310619,0.4891281931988864,-6.761101346936532,-0.07865737682112911,-1.2534593992730922,9.685160323244387,0.009818324606166091,-0.005452628018523502,-0.038179077387375956,11.05849781239786,25.751719018022698,-83.375
1772056081.2541268,174.5490147116498,50.996150778294684,161.68188833038195,-0.07905138999117468,-1.188749224017301,9.74699125991362,-0.005454492919516976,0.002180813856373868,-0.037088246604879506,10.37092982463823,26.189112161782603,-83.0
1772056081.337149,31.710640223501763,0.47966491794977784,-6.7606800095141715,-0.06258804301983255,-1.145682725765435,9.871766850253161,-0.007634120020713179,-0.010909494448395809,-0.030543261909900768,10.37092982463823,26.189112161782603,-83.0
1772056081.3973844,31.710640223501763,0.47966491794977784,-6.7606800095141715,-0.06258804301983255,-1.145682725765435,9.871766850253161,-0.007634120020713179,-0.010909494448395809,-0.030543261909900768,10.37092982463823,26.189112161782603,-83.0
1772056081.4316273,31.53714611864638,0.4521188061401349,-6.751671726080219,-0.07838912358256526,-1.140442393098208,9.954803611789453,-3.3907290790431153e-07,0.0021816615386436285,-0.02399827721492203,10.370482993367116,29.06411212705944,-83.375
1772056081.4709852,31.486064342595345,0.4539481732745889,-6.743248146663038,-0.08890404629159687,-1.1403001219134385,9.916400521205508,0.008728171982660083,-0.009816120632264712,-0.018544123302439753,10.370482993367116,29.06411212705944,-83.375
1772056081.4936981,31.420312521653827,0.4443725624941366,-6.723158606274989,-0.09590212979090618,-1.136860330362329,9.890843693412524,0.010909155375487905,-0.0054524584820695495,-0.022907446432425576,9.245259591318883,30.501437262678728,-84.25
1772056081.5268424,31.420312521653827,0.4443725624941366,-6.723158606274989,-0.09590212979090618,-1.136860330362329,9.890843693412524,0.010909155375487905,-0.0054524584820695495,-0.022907446432425576,9.245259591318883,30.501437262678728,-84.25
1772056081.6038933,31.14787509608339,0.48046302706270333,-6.70222440217043,-0.12595306423149905,-1.071767544783093,9.910456141279193,0.009816120632264712,0.008728171982660083,-0.04581489286485115,9.995143017581245,31.251553818299932,-84.5625
1772056081.6459625,31.14787509608339,0.48046302706270333,-6.70222440217043,-0.12595306423149905,-1.071767544783093,9.910456141279193,0.009816120632264712,0.008728171982660083,-0.04581489286485115,9.995143017581245,31.251553818299932,-84.5625
1772056081.6712823,31.076090975553093,0.48978227420605586,-6.699092674977828,-0.13729587319981637,-1.0109725853142497,9.893577998389274,0.002179796637650155,0.011999477535447861,-0.04254240051736178,9.995143017581245,31.251553818299932,-84.5625
1772056081.6992173,30.93810187882964,0.46444472005615905,-6.6896544260573645,-0.17158448336283139,-1.104322844755319,9.882345782837243,-0.0032704578705180175,-0.013090477841223629,-0.08290313946973066,9.995143017581245,31.251553818299932,-84.5625
1772056081.7816396,30.830886940704257,0.439089013130679,-6.67365930882319,-0.19440265050161348,-1.1697915112895445,9.754446847395938,0.0065446455430229825,0.0021826787573673415,-0.016362461737446838,8.494754486766276,33.751320658747034,-84.1875
1772056081.844278,30.708346878450474,0.412860691006714,-6.657494944735298,-0.19955255083608936,-1.2133586178476523,9.669331534584472,-0.005456018747602546,0.011998290780270196,-0.025089107997418487,8.494754486766276,33.751320658747034,-84.1875
1772056081.8640358,30.627845038600345,0.42475100381855807,-6.63878944896381,-0.20298287135551724,-1.222281370584094,9.649484473489299,-0.0010932042796771445,0.015271461234051448,-0.031634092692397225,8.494560212300575,35.001320643650004,-84.1875
1772056081.880662,30.627845038600345,0.42475100381855807,-6.63878944896381,-0.20298287135551724,-1.222281370584094,9.649484473489299,-0.0010932042796771445,0.015271461234051448,-0.031634092692397225,8.494560212300575,35.001320643650004,-84.1875
1772056081.932689,30.5990620896311,0.4230840024148189,-6.638932821708221,-0.1617860183178788,-1.1847261525407655,9.63627647603666,0.003273170453781252,-0.004362814467925401,-0.020725784867432664,8.494560212300575,35.001320643650004,-84.1875
1772056081.9622927,30.460080890778585,0.44574739461947566,-6.645652773503956,-0.268174439497068,-1.159754370285473,9.637522036396884,0.008726137545212658,0.0032738485995970606,-0.05781403147231216,9.244327073883516,36.501437190213,-83.0
1772056082.016635,30.28618797324051,0.42394286670596876,-6.6565176958520444,-0.2821104464968301,-1.12640153158393,9.638350942902793,0.0022043794234732172,-0.14617098401621523,-0.039269908169872414,9.244327073883516,36.501437190213,-83.0
1772056082.0554397,30.28618797324051,0.42394286670596876,-6.6565176958520444,-0.2821104464968301,-1.12640153158393,9.638350942902793,0.0022043794234732172,-0.14617098401621523,-0.039269908169872414,9.244327073883516,36.501437190213,-83.0
1772056082.0972993,30.24431305650704,0.4160415978913156,-6.636693285904409,-0.29138470347977324,-1.1042055900036738,9.65228301775226,0.01199778217090834,0.008728511055567989,-0.018544123302439753,9.244288218990375,36.75143718719359,-82.5625
1772056082.1690469,30.136681590922787,0.39627149976580117,-6.640728112566265,-0.29756233675583216,-1.0526382104908245,9.745182450616094,0.004365187978280731,-0.011998460316724148,-0.05890486225480862,9.244288218990375,36.75143718719359,-82.5625
1772056082.1988473,30.049797369996522,0.36909815238370103,-6.639408311169396,-0.1879396860171388,-1.018303019012118,9.807005985432312,0.0043628144679254,0.003273170453781252,-0.031634092692397225,8.86888024714151,39.376378873150124,-81.0
1772056082.2377818,29.92893090206801,0.3449449272335549,-6.630123088325646,-0.14508836245556414,-1.02556401669701,9.73776017089683,0.016364835050182543,-0.01526908772369612,-0.04908738521234052,8.86888024714151,39.376378873150124,-81.0
1772056082.2574496,29.855804131121253,0.3456678508833947,-6.621667174686228,-0.08645592217874845,-1.0906034604876924,9.6916778548499,0.006542611105575556,0.015272647989229114,-0.04145156973486533,9.243938524952112,39.00143716001894,-79.375
1772056082.2843943,29.855804131121253,0.3456678508833947,-6.621667174686228,-0.08645592217874845,-1.0906034604876924,9.6916778548499,0.006542611105575556,0.015272647989229114,-0.04145156973486533,9.243938524952112,39.00143716001894,-79.375
1772056082.3398607,29.796692043389022,0.36933297229264306,-6.614716387034031,-0.07755205126903732,-1.073679152850154,9.64093991804995,-0.010912885177474851,0.029450735407149466,-0.030543261909900768,9.243938524952112,39.00143716001894,-79.375
1772056082.3910544,29.702447046624723,0.3800532055733174,-6.6759395916068875,-0.10842337287331372,-1.0590768223615066,9.63728039325535,0.0021784403460185374,0.02072612369002238,-0.032724923474893676,7.743753982326129,40.18870401631792,-79.0
1772056082.4735157,29.610513549161528,0.3529752515929849,-6.703803109738113,-0.15907389754796694,-1.0493638136025167,9.838896834530598,0.0021814920021896765,0.0010911698422297186,-0.025089107997418487,7.743753982326129,40.18870401631792,-79.0
1772056082.545229,29.42769115333378,0.37080444578652166,-6.675068355885904,-0.24197713908359095,-1.0185317514766226,10.062361282419232,0.015268918187242166,0.01745566581950436,-0.05235987755982989,8.868540266826532,41.563878846730326,-78.5625
1772056082.6221366,29.274455514977017,0.37541461180215296,-6.67183274187452,-0.16098265310269694,-1.0022973345536097,9.921076715365333,-0.003274865818320773,0.015271122161143545,-0.006544984694978736,7.743647131369993,40.87620400801456,-77.375
1772056082.6891751,29.159553178348478,0.36519461936647185,-6.658757053013986,-0.12379948734721948,-1.0416727859245987,9.907336095218653,-0.009814764340633095,-0.0174548181372346,-0.04145156973486533,7.743647131369993,40.87620400801456,-77.375
1772056082.7929072,29.01692050728997,0.3332791783738822,-6.679794627418381,-0.0990545059001265,-1.0678767089593797,9.898191866003822,-0.0032740181360510125,0.009816968314534472,-0.037088246604879506,9.24358883091385,41.251437132844295,-76.0625
1772056082.8617942,28.915411287847927,0.3255991794073906,-6.673174146859694,-0.09262233216739586,-1.0853166867095216,9.892106483609085,0.0010879486496046275,0.0185442926149248,-0.03599741582238305,9.24358883091385,41.251437132844295,-76.0625
1772056082.8913095,28.771321115065742,0.32050745794157304,-6.658372813772829,-0.08834491177534251,-1.0768521270834144,9.871331171066966,-0.009818833215527947,0.008725120326488945,-0.04036073895236887,9.556147109479305,40.87648570598982,-75.375
1772056082.9499226,28.684715466131347,0.318940799659421,-6.6721712480564905,-0.07880135430669843,-1.114704469085842,9.787258086791926,-0.01527315659859097,0.009815103413540999,-0.026179938779914945,9.556147109479305,40.87648570598982,-75.375
1772056083.0171163,28.569257887799672,0.3188785953919415,-6.642009733368844,-0.052381633001654555,-1.1265112138074282,9.801555734218482,0.00545161079979979,0.016363309222096976,-0.031634092692397225,9.24358883091385,41.251437132844295,-74.5625
1772056083.0520706,28.397450318798743,0.291969887533624,-6.661190751912324,-0.054853636935667714,-1.241415163246042,9.811070658865669,0.003274526745412869,-0.013089460622499917,-0.04363323129985824,9.24358883091385,41.251437132844295,-74.5625
1772056083.1221023,28.346408070855368,0.2924253360933246,-6.674768908986946,-0.049808504605823395,-1.3178814182445582,9.817402734929699,-0.006545832298200647,0.005453136627885358,-0.008726646259971648,10.68108881355227,41.25166054847985,-75.75
1772056083.1723497,28.260432359652995,0.28061798519086584,-6.6767002114459215,-0.05983147206580641,-1.3687709363453608,9.798200878865151,-0.005453645237247215,-0.003273339990235204,-0.03381575425739013,10.68108881355227,41.25166054847985,-75.75
1772056083.2123706,28.116717916422406,0.2688325465451877,-6.663508082365339,-0.06652556015480154,-1.2487622054900338,9.78542225815298,-0.010910003057757665,0.010906612328678622,-0.04036073895236887,10.368588817326527,41.251611979863426,-74.5625
1772056083.2899413,28.116717916422406,0.2688325465451877,-6.663508082365339,-0.06652556015480154,-1.2487622054900338,9.78542225815298,-0.010910003057757665,0.010906612328678622,-0.04036073895236887,10.368588817326527,41.251611979863426,-74.5625
1772056083.373922,27.84405018636117,0.22767430098902766,-6.562254679219941,-0.15752309765249375,-1.055549801390591,9.791329562531683,-0.00545398431015512,-0.0010916784515915751,-0.011999138607461015,11.056040240406736,41.5642188270453,-73.75
1772056083.5161602,27.86361362695719,0.24238480257414413,-6.558565471715291,-0.15429875755695582,-1.2174177289041632,9.797267233935578,-0.007637171676884318,0.00872545939939685,0.0272707695624114,11.056040240406736,41.5642188270453,-73.75
1772056083.552159,27.86361362695719,0.24238480257414413,-6.558565471715291,-0.15429875755695582,-1.2174177289041632,9.797267233935578,-0.007637171676884318,0.00872545939939685,0.0272707695624114,11.056040240406736,41.5642188270453,-73.75
1772056083.6167748,27.806638017442456,0.2289541087985702,-6.546799014805982,-0.13606191088100628,-1.2818438431324242,9.768075369345251,0.008727493836844276,-0.005452797554977454,-0.028361600344907856,11.056040240406736,41.5642188270453,-73.75
1772056083.6443992,27.843775082181367,0.23277359442130055,-6.553797775579882,-0.12393381147039498,-1.2711969157937857,9.748648509554881,0.0010910003057757664,-0.001090661232867862,0.020725784867432664,10.68114709589198,40.87666055300895,-72.5625
1772056083.667975,27.843775082181367,0.23277359442130055,-6.553797775579882,-0.12393381147039498,-1.2711969157937857,9.748648509554881,0.0010910003057757664,-0.001090661232867862,0.020725784867432664,10.68114709589198,40.87666055300895,-72.5625
1772056083.6866677,27.843390520153452,0.2395517013949394,-6.5521190212138585,-0.13927847846080935,-1.2641151438547151,9.792587050401064,0.0032728313808733475,-0.002181152929281772,0.001090830782496456,10.68114709589198,40.87666055300895,-72.5625
1772056083.7415106,27.850168597925308,0.23993614896986656,-6.5520086930093875,-0.1495016206400663,-1.185809847065635,9.821827658508536,3.3907290790431153e-07,-0.0021816615386436285,0.003272492347489368,10.3685402487101,41.564111976089166,-74.5625
1772056083.8100128,27.863724159746216,0.24070497112013725,-6.551787909873231,-0.156305007560381,-1.133698546779982,9.824561398028466,-0.002182339684459437,0.004362984004379353,-0.001090830782496456,10.3685402487101,41.564111976089166,-74.5625
1772056083.878928,27.863724159746216,0.24070497112013725,-6.551787909873231,-0.156305007560381,-1.133698546779982,9.824561398028466,-0.002182339684459437,0.004362984004379353,-0.001090830782496456,10.3685402487101,41.564111976089166,-74.5625
1772056083.9159558,27.855251017919432,0.270850883133524,-6.529945542273558,-0.14938167422846527,-1.075937998563829,9.827591377074961,0.0010910003057757664,-0.001090661232867862,0.0,10.680972248872848,42.001660539421636,-75.0
1772056083.9899712,27.855251017919432,0.270850883133524,-6.529945542273558,-0.13615451456183936,-1.0605769395760072,9.828397088349467,-0.0021814920021896765,-0.0010911698422297186,0.003272492347489368,10.368588817326527,41.251611979863426,-74.5625
1772056084.0282176,27.85475609688992,0.2793080524387251,-6.535044232150514,-0.1273504278732596,-1.060389661414639,9.815552833372989,0.0,0.0,-0.00545415391248228,10.368588817326527,41.251611979863426,-74.5625
1772056084.0564756,27.85475609688992,0.2793080524387251,-6.535044232150514,-0.1273504278732596,-1.060389661414639,9.815552833372989,0.0,0.0,-0.00545415391248228,10.368588817326527,41.251611979863426,-74.5625
1772056084.0854082,27.854868442256254,0.2776288048096367,-6.528266241577074,-0.12149140653010213,-1.0602650298902827,9.807005125165873,0.001090661232867862,0.0010910003057757664,0.003272492347489368,9.993588821855635,41.25155369752371,-74.1875
1772056084.1410086,27.854486064500243,0.2844067470888189,-6.526586982837232,-0.11759229327578766,-1.0601820890030489,9.801316720838194,0.0010911698422297186,-0.0021814920021896765,-0.003272492347489368,9.993588821855635,41.25155369752371,-74.1875
1772056084.154005,27.854486064500243,0.2844067470888189,-6.526586982837232,-0.11759229327578766,-1.0601820890030489,9.801316720838194,0.0010911698422297186,-0.0021814920021896765,-0.003272492347489368,9.993588821855635,41.25155369752371,-74.1875
1772056084.173492,27.854103884645056,0.2911847099145244,-6.5249077660198695,-0.1016170302933168,-1.0601248131857781,9.794186039594443,-1.6953645395215576e-07,0.0010908307693218143,0.0,9.993472257176213,42.0015536884655,-74.5625
1772056084.1883204,27.854103884645056,0.2911847099145244,-6.5249077660198695,-0.10436507810987297,-1.066778999686361,9.789440650881657,0.0010908307693218143,1.6953645395215576e-07,-0.003272492347489368,9.993472257176213,42.0015536884655,-74.5625
1772056084.254828,27.854103884645056,0.2911847099145244,-6.5249077660198695,-0.10436507810987297,-1.066778999686361,9.789440650881657,0.0010908307693218143,1.6953645395215576e-07,-0.003272492347489368,9.993472257176213,42.0015536884655,-74.5625
1772056084.2727957,27.853721902684313,0.29796269323020647,-6.523228591090827,-0.11288409656792238,-1.0712083262620287,9.789627759410083,0.0,0.0,0.0,10.68108881355227,41.25166054847985,-74.1875
1772056084.3014877,27.853721902684313,0.29796269323020647,-6.523228591090827,-0.11288409656792238,-1.0712083262620287,9.789627759410083,0.0,0.0,0.0,10.68108881355227,41.25166054847985,-74.1875
1772056084.3260336,27.853453766689377,0.30306159612442396,-6.5147713272930385,-0.11855340818808269,-1.0741559936193157,9.78975227804561,-6.781458158086231e-07,0.004363323077287257,0.0,10.68108881355227,41.25166054847985,-74.1875
1772056084.3482456,27.853453766689377,0.30306159612442396,-6.5147713272930385,-0.12232471205344382,-1.0861529683187436,9.78983514380659,0.0010910003057757664,-0.001090661232867862,0.004363323129985824,9.993647104195345,40.876553702052824,-74.0625
1772056084.3853018,27.853072555668653,0.3098396630988953,-6.513092211394075,-0.11145402597994357,-1.0941347413828975,9.78989029004485,-1.6953645395215576e-07,0.0010908307693218143,-0.001090830782496456,9.993647104195345,40.876553702052824,-74.0625
1772056084.436588,27.853072555668653,0.3098396630988953,-6.513092211394075,-0.10421970583154926,-1.0994465221948446,9.789926989250388,-0.0010913393786836708,0.0032723227715114912,0.0,10.368588817326527,41.251611979863426,-74.0625
1772056084.4578357,27.853072555668653,0.3098396630988953,-6.513092211394075,-0.0994063863771074,-1.096291229654879,9.783261188747078,1.6953645395215576e-07,-0.0010908307693218143,0.001090830782496456,10.368588817326527,41.251611979863426,-74.0625
1772056084.474306,27.853072555668653,0.3098396630988953,-6.513092211394075,-0.0994063863771074,-1.096291229654879,9.783261188747078,1.6953645395215576e-07,-0.0010908307693218143,0.001090830782496456,10.368588817326527,41.251611979863426,-74.0625
1772056084.5053632,27.852691542529598,0.31661775038299544,-6.511413137242603,-0.09954880761122785,-1.0908468259453725,9.782170284681316,-3.3907290790431153e-07,0.0021816615386436285,-0.001090830782496456,10.368588817326527,41.251611979863426,-73.25
1772056084.5574696,27.852805743078353,0.3149387102582757,-6.50463491547983,-0.09964358735158556,-1.0872236360946703,9.781444300211747,0.001090661232867862,0.0010910003057757664,-0.002181661564992912,10.368588817326527,41.251611979863426,-73.25
1772056084.612378,27.85242530300348,0.3217168605783667,-6.502955858355052,-0.09970666221003455,-1.0848124437227105,9.780961165657027,-0.001090661232867862,-0.0010910003057757664,-0.002181661564992912,9.243472266234429,42.001437123786076,-73.75
1772056084.6843674,27.852045060803846,0.3284950310842821,-6.501276842871089,-0.09974811792790829,-1.0865529338008735,9.780639645007827,0.0010908307693218143,1.6953645395215576e-07,0.002181661564992912,9.243472266234429,42.001437123786076,-73.75
1772056084.7576373,27.852045060803846,0.3284950310842821,-6.501276842871089,-0.10312081791198094,-1.0877117304011743,9.780425676607406,-1.6953645395215576e-07,0.0010908307693218143,-0.002181661564992912,9.993540253239209,41.56405369374946,-72.5625
1772056084.8201575,27.852045060803846,0.3284950310842821,-6.501276842871089,-0.10536531207585387,-1.0884828965940685,9.77693817131979,3.3907290790431153e-07,-0.0021816615386436285,0.001090830782496456,9.993540253239209,41.56405369374946,-72.5625
1772056084.8629062,27.852045060803846,0.3284950310842821,-6.501276842871089,-0.10685899786926865,-1.0889960990809486,9.787997722338146,-0.0010903221599599577,-0.0032726618444193956,-0.001090830782496456,10.680972248872848,42.001660539421636,-73.75
1772056084.88941,27.852045060803846,0.3284950310842821,-6.501276842871089,-0.10685899786926865,-1.0889960990809486,9.787997722338146,-0.0010903221599599577,-0.0032726618444193956,-0.001090830782496456,10.680972248872848,42.001660539421636,-73.75
1772056084.918131,27.852045060803846,0.3284950310842821,-6.501276842871089,-0.10785302907922259,-1.08933762960312,9.792012618290263,-1.6953645395215576e-07,0.0010908307693218143,-0.001090830782496456,10.680972248872848,42.001660539421636,-73.75
1772056084.9355357,27.852045060803846,0.3284950310842821,-6.501276842871089,-0.10785302907922259,-1.08933762960312,9.792012618290263,-1.6953645395215576e-07,0.0010908307693218143,-0.001090830782496456,10.680972248872848,42.001660539421636,-73.75
1772056084.9775324,27.852045060803846,0.3284950310842821,-6.501276842871089,-0.1085155855370542,-1.0828746910166422,9.79468448669707,-0.0010913393786836708,0.0032723227715114912,0.0,10.680972248872848,42.001660539421636,-74.5625
1772056085.0079596,27.852045060803846,0.3284950310842821,-6.501276842871089,-0.10895650945850054,-1.078573677583096,9.796462585275075,1.6953645395215576e-07,-0.0010908307693218143,-0.001090830782496456,10.680972248872848,42.001660539421636,-74.5625
1772056085.0554557,27.852045060803846,0.3284950310842821,-6.501276842871089,-0.10590482773586177,-1.0757108812927072,9.794300778308754,0.001090661232867862,0.0010910003057757664,0.001090830782496456,10.68108881355227,41.25166054847985,-75.375
1772056085.0686893,27.852045060803846,0.3284950310842821,-6.501276842871089,-0.10721855941005082,-1.0771513539037334,9.792862119921635,-0.001090661232867862,-0.0010910003057757664,-0.001090830782496456,10.68108881355227,41.25166054847985,-75.375
1772056085.0986476,27.852045060803846,0.3284950310842821,-6.501276842871089,-0.10721855941005082,-1.0771513539037334,9.792862119921635,-0.001090661232867862,-0.0010910003057757664,-0.001090830782496456,10.68108881355227,41.25166054847985,-75.375
1772056085.1409624,27.852045060803846,0.3284950310842821,-6.501276842871089,-0.10474772149696088,-1.0781094524394064,9.788559597128554,-0.0010908307693218143,-1.6953645395215576e-07,0.0,10.368588817326527,41.251611979863426,-74.0625
1772056085.1684635,27.852045060803846,0.3284950310842821,-6.501276842871089,-0.10310340646686751,-1.078747056312235,9.782351204564769,-0.0010910003057757664,0.001090661232867862,-0.002181661564992912,10.368588817326527,41.251611979863426,-74.0625
1772056085.21088,27.852045060803846,0.3284950310842821,-6.501276842871089,-0.10200861328671107,-1.0825164862340186,9.781564700373178,-0.0021814920021896765,-0.0010911698422297186,0.0,11.05597224434374,42.001718821761344,-72.5625
1772056085.2520607,27.852045060803846,0.3284950310842821,-6.501276842871089,-0.10200861328671107,-1.0825164862340186,9.781564700373178,-0.0021814920021896765,-0.0010911698422297186,0.0,11.05597224434374,42.001718821761344,-72.5625
1772056085.279589,27.852045060803846,0.3284950310842821,-6.501276842871089,-0.10128004065495809,-1.0850249997396746,9.771005955497543,0.0,0.0,0.003272492347489368,11.05597224434374,42.001718821761344,-72.5625
1772056085.2994344,27.852045060803846,0.3284950310842821,-6.501276842871089,-0.10748488714522111,-1.0900405389143384,9.777359675560994,1.6953645395215576e-07,-0.0010908307693218143,-0.001090830782496456,11.05597224434374,42.001718821761344,-72.5625
1772056085.339385,27.852045060803846,0.3284950310842821,-6.501276842871089,-0.10492391983797753,-1.0933772844161702,9.774897781872879,0.0010908307693218143,1.6953645395215576e-07,0.001090830782496456,10.680972248872848,42.001660539421636,-74.5625
1772056085.3573499,27.852045060803846,0.3284950310842821,-6.501276842871089,-0.10492391983797753,-1.0933772844161702,9.774897781872879,0.0010908307693218143,1.6953645395215576e-07,0.001090830782496456,10.680972248872848,42.001660539421636,-74.5625
1772056085.383151,27.852045060803846,0.3284950310842821,-6.501276842871089,-0.10991036793255471,-1.0922537793984948,9.773259419124592,0.0010911698422297186,-0.0021814920021896765,0.001090830782496456,10.680972248872848,42.001660539421636,-74.5625
1772056085.4198039,27.852045060803846,0.3284950310842821,-6.501276842871089,-0.10991036793255471,-1.0922537793984948,9.773259419124592,0.0010911698422297186,-0.0021814920021896765,0.001090830782496456,10.680972248872848,42.001660539421636,-74.5625
1772056085.4341261,27.852045060803846,0.3284950310842821,-6.501276842871089,-0.10653908999921577,-1.0881599479010233,9.77216910701732,0.001090661232867862,0.0010910003057757664,-0.002181661564992912,10.681040244935843,41.564160544705594,-74.1875
1772056085.448361,27.852045060803846,0.3284950310842821,-6.501276842871089,-0.10764013396530746,-1.0887811803333003,9.774788628196832,0.001090661232867862,0.0010910003057757664,0.0,10.681040244935843,41.564160544705594,-74.1875
1772056085.4653354,27.852045060803846,0.3284950310842821,-6.501276842871089,-0.10502827465418782,-1.0858489720146096,9.779877001987149,-1.6953645395215576e-07,0.0010908307693218143,-0.001090830782496456,10.681040244935843,41.564160544705594,-74.1875
1772056085.481322,27.852045060803846,0.3284950310842821,-6.501276842871089,-0.10502827465418782,-1.0858489720146096,9.779877001987149,-1.6953645395215576e-07,0.0010908307693218143,-0.001090830782496456,10.681040244935843,41.564160544705594,-74.1875
1772056085.5011067,27.852045060803846,0.3284950310842821,-6.501276842871089,-0.10663522312593632,-1.0838981400292658,9.783263257903744,0.0,0.0,0.001090830782496456,10.368413970307396,42.3766119662761,-75.0
1772056085.5180187,27.852045060803846,0.3284950310842821,-6.501276842871089,-0.10435951771617592,-1.082599363239409,9.785516773389283,0.0,0.0,0.0,10.368413970307396,42.3766119662761,-75.0
1772056085.5351593,27.852045060803846,0.3284950310842821,-6.501276842871089,-0.10435951771617592,-1.082599363239409,9.785516773389283,0.0,0.0,0.0,10.368413970307396,42.3766119662761,-75.0
1772056085.547848,27.852045060803846,0.3284950310842821,-6.501276842871089,-0.10618965295836216,-1.0850806733567968,9.783671351064172,0.0,0.0,-0.001090830782496456,10.368413970307396,42.3766119662761,-75.0
1772056085.5607038,27.852045060803846,0.3284950310842821,-6.501276842871089,-0.10618965295836216,-1.0850806733567968,9.783671351064172,0.0,0.0,-0.001090830782496456,10.368413970307396,42.3766119662761,-75.0
1772056085.5788841,27.852045060803846,0.3284950310842821,-6.501276842871089,-0.10406247585116851,-1.0867314376260364,9.782443243121527,0.0,0.0,0.0,10.681040244935843,41.564160544705594,-73.375
1772056085.5952702,27.852045060803846,0.3284950310842821,-6.501276842871089,-0.10406247585116851,-1.0867314376260364,9.782443243121527,0.0,0.0,0.0,10.681040244935843,41.564160544705594,-73.375
1772056085.7072344,27.852045060803846,0.3284950310842821,-6.501276842871089,-0.10264738314428812,-1.084484891140052,9.781625951004562,-0.0010908307693218143,-1.6953645395215576e-07,0.002181661564992912,9.993540253239209,41.56405369374946,-74.5625
1772056085.7866385,27.852045060803846,0.3284950310842821,-6.501276842871089,-0.10170565475548049,-1.0829898395491977,9.781082052230474,-3.3907290790431153e-07,0.0021816615386436285,0.0,10.681040244935843,41.564160544705594,-75.375
1772056085.8204377,27.852045060803846,0.3284950310842821,-6.501276842871089,-0.10170565475548049,-1.0829898395491977,9.781082052230474,-3.3907290790431153e-07,0.0021816615386436285,0.0,10.681040244935843,41.564160544705594,-75.375
1772056085.884451,27.852045060803846,0.3284950310842821,-6.501276842871089,-0.10107894503252442,-1.0819948994163047,9.780720093672064,-0.0010908307693218143,-1.6953645395215576e-07,-0.001090830782496456,10.681040244935843,41.564160544705594,-75.375
1772056085.958966,27.852045060803846,0.3284950310842821,-6.501276842871089,-0.10400698837962186,-1.0813332977679058,9.780479214294786,-3.3907290790431153e-07,0.0021816615386436285,0.0,9.993413974836503,42.376553683936386,-73.75
1772056086.0107722,27.852045060803846,0.3284950310842821,-6.501276842871089,-0.10261045685180949,-1.0808924893656393,9.780318911760006,-1.6953645395215576e-07,0.0010908307693218143,0.001090830782496456,9.993413974836503,42.376553683936386,-73.75
1772056086.0765343,27.852045060803846,0.3284950310842821,-6.501276842871089,-0.10261045685180949,-1.0808924893656393,9.780318911760006,-1.6953645395215576e-07,0.0010908307693218143,0.001090830782496456,9.993413974836503,42.376553683936386,-73.75
1772056086.1024158,27.852045060803846,0.3284950310842821,-6.501276842871089,-0.10261045685180949,-1.0808924893656393,9.780318911760006,-1.6953645395215576e-07,0.0010908307693218143,0.001090830782496456,9.993413974836503,42.376553683936386,-73.75
1772056086.1746132,27.852045060803846,0.3284950310842821,-6.501276842871089,-0.10502619238724809,-1.080599656193915,9.780212232213806,-1.6953645395215576e-07,0.0010908307693218143,0.0,11.74354023210337,41.56432567800144,-75.0
1772056086.2159414,27.852045060803846,0.3284950310842821,-6.501276842871089,-0.10213194118858965,-1.083619336172757,9.785665238603931,0.001090661232867862,0.0010910003057757664,0.001090830782496456,11.056040240406736,41.5642188270453,-73.0
1772056086.3998048,27.852045060803846,0.3284950310842821,-6.501276842871089,-0.10085084239052051,-1.0804925892096955,9.788080240891356,0.001090661232867862,0.0010910003057757664,-0.001090830782496456,10.368705382005947,40.50161198892164,-73.75
1772056086.4913762,27.852045060803846,0.3284950310842821,-6.501276842871089,-0.10051059684835506,-1.0769878955445618,9.785377310050992,-0.0010911698422297186,0.0021814920021896765,0.0,10.368705382005947,40.50161198892164,-73.75
1772056086.5613325,27.852045060803846,0.3284950310842821,-6.501276842871089,-0.10028416724083569,-1.074655561060409,9.783578539770446,-1.6953645395215576e-07,0.0010908307693218143,0.001090830782496456,10.681040244935843,41.564160544705594,-74.5625
1772056086.5886884,27.852045060803846,0.3284950310842821,-6.501276842871089,-0.10028416724083569,-1.074655561060409,9.783578539770446,-1.6953645395215576e-07,0.0010908307693218143,0.001090830782496456,10.681040244935843,41.564160544705594,-74.5625
1772056086.6378202,27.852045060803846,0.3284950310842821,-6.501276842871089,-0.100133480866416,-1.0731034185150883,9.789071701656962,0.0010910003057757664,-0.001090661232867862,0.0,10.681040244935843,41.564160544705594,-74.5625
1772056086.6743908,27.852045060803846,0.3284950310842821,-6.501276842871089,-0.100133480866416,-1.0731034185150883,9.789071701656962,0.0010910003057757664,-0.001090661232867862,0.0,10.681040244935843,41.564160544705594,-74.5625
1772056086.700095,27.852045060803846,0.3284950310842821,-6.501276842871089,-0.10337831243443518,-1.0720710048855775,9.7927273395298,-0.0010908307693218143,-1.6953645395215576e-07,0.0,10.368588817326527,41.251611979863426,-74.1875
1772056086.8146584,27.852045060803846,0.3284950310842821,-6.501276842871089,-0.1055371916999766,-1.0747290568148724,9.791815013990703,3.3907290790431153e-07,-0.0021816615386436285,0.001090830782496456,10.368472252647106,42.00161197080521,-74.5625
1772056086.9099083,27.852045060803846,0.3284950310842821,-6.501276842871089,-0.10697390173493285,-1.0764979606814324,9.791207871535779,1.6953645395215576e-07,-0.0010908307693218143,-0.001090830782496456,10.368472252647106,42.00161197080521,-74.5625
1772056086.9744396,27.852045060803846,0.3284950310842821,-6.501276842871089,-0.10697390173493285,-1.0764979606814324,9.791207871535779,1.6953645395215576e-07,-0.0010908307693218143,-0.001090830782496456,10.368472252647106,42.00161197080521,-74.5625
1772056086.995148,27.852045060803846,0.3284950310842821,-6.501276842871089,-0.10793001621409357,-1.0776751464446774,9.787458713306933,-1.6953645395215576e-07,0.0010908307693218143,-0.002181661564992912,9.993540253239209,41.56405369374946,-73.25
1772056087.074858,27.852045060803846,0.3284950310842821,-6.501276842871089,-0.10856629971947646,-1.0784585504200903,9.788308802093797,0.0010910003057757664,-0.001090661232867862,0.0,9.993540253239209,41.56405369374946,-73.25
1772056087.1002529,27.852045060803846,0.3284950310842821,-6.501276842871089,-0.10856629971947646,-1.0784585504200903,9.788308802093797,0.0010910003057757664,-0.001090661232867862,0.0,9.993540253239209,41.56405369374946,-73.25
1772056087.131032,27.852045060803846,0.3284950310842821,-6.501276842871089,-0.10899025918038803,-1.0756347853476131,9.78552941497802,-1.6953645395215576e-07,0.0010908307693218143,-0.001090830782496456,9.556147109479305,40.87648570598982,-75.0
1772056087.1762335,27.852045060803846,0.3284950310842821,-6.501276842871089,-0.10899025918038803,-1.0756347853476131,9.78552941497802,-1.6953645395215576e-07,0.0010908307693218143,-0.001090830782496456,9.556147109479305,40.87648570598982,-75.0
1772056087.266312,27.852045060803846,0.3284950310842821,-6.501276842871089,-0.10927239946568718,-1.0737556012354026,9.78702487560758,-0.002182000611551533,0.002181322465735724,0.0,9.556147109479305,40.87648570598982,-75.0
1772056087.3207262,27.852045060803846,0.3284950310842821,-6.501276842871089,-0.10611452911109016,-1.075849616971675,9.784674976243842,-0.001090661232867862,-0.0010910003057757664,0.001090830782496456,9.993540253239209,41.56405369374946,-74.5625
1772056087.3692873,27.852045060803846,0.3284950310842821,-6.501276842871089,-0.10401300166582908,-1.077243161052476,9.78645625617469,-0.001090661232867862,-0.0010910003057757664,-0.001090830782496456,9.993540253239209,41.56405369374946,-74.5625
1772056087.3923216,27.852045060803846,0.3284950310842821,-6.501276842871089,-0.10401300166582908,-1.077243161052476,9.78645625617469,-0.001090661232867862,-0.0010910003057757664,-0.001090830782496456,9.993540253239209,41.56405369374946,-74.5625
1772056087.4240496,27.852045060803846,0.3284950310842821,-6.501276842871089,-0.10261393873077584,-1.0815156607382599,9.787641678070468,-0.0011130400447895467,0.1428986612447037,-0.001090830782496456,9.993647104195345,40.876553702052824,-75.0
1772056087.4410722,27.852045060803846,0.3284950310842821,-6.501276842871089,-0.10168287797605495,-1.0843589615522005,9.788430563100079,-0.00109049169641391,-0.002181831075097581,-0.001090830782496456,9.993647104195345,40.876553702052824,-75.0
1772056087.4576502,27.852045060803846,0.3284950310842821,-6.501276842871089,-0.1010632674444183,-1.0862511464821265,9.785610445567542,0.0010908307693218143,1.6953645395215576e-07,0.001090830782496456,9.993647104195345,40.876553702052824,-75.0
1772056087.4916754,27.852045060803846,0.3284950310842821,-6.501276842871089,-0.1010632674444183,-1.0862511464821265,9.785610445567542,0.0010908307693218143,1.6953645395215576e-07,0.001090830782496456,9.993647104195345,40.876553702052824,-75.0
1772056087.5229602,27.852045060803846,0.3284950310842821,-6.501276842871089,-0.10065144345294898,-1.0841652627489835,9.783733688852415,-0.0010910003057757664,0.001090661232867862,0.0,11.05597224434374,42.001718821761344,-75.0
1772056087.5673516,27.852045060803846,0.3284950310842821,-6.501276842871089,-0.10372249085391995,-1.0827776503212565,9.782484728223245,1.6953645395215576e-07,-0.0010908307693218143,0.0,11.05597224434374,42.001718821761344,-75.0
1772056087.5994592,27.852045060803846,0.3284950310842821,-6.501276842871089,-0.10576623859341884,-1.0818542097512507,9.778308447169017,-0.001090661232867862,-0.0010910003057757664,-0.001090830782496456,10.681040244935843,41.564160544705594,-74.1875
1772056087.6388352,27.852045060803846,0.3284950310842821,-6.501276842871089,-0.10576623859341884,-1.0818542097512507,9.778308447169017,-0.001090661232867862,-0.0010910003057757664,-0.001090830782496456,10.681040244935843,41.564160544705594,-74.1875
1772056087.6750371,27.852045060803846,0.3284950310842821,-6.501276842871089,-0.10712632988389721,-1.0812396703674187,9.775529178779545,-0.0010910003057757664,0.001090661232867862,0.002181661564992912,10.681040244935843,41.564160544705594,-74.1875
1772056087.6974866,27.852045060803846,0.3284950310842821,-6.501276842871089,-0.10468582388174524,-1.08417529304342,9.773679606712813,0.0010910003057757664,-0.001090661232867862,0.001090830782496456,10.680972248872848,42.001660539421636,-73.75
1772056087.7674959,27.852045060803846,0.3284950310842821,-6.501276842871089,-0.10306221429538318,-1.0827838054743266,9.772448737163476,-0.0010910003057757664,0.001090661232867862,-0.001090830782496456,10.680972248872848,42.001660539421636,-73.75
1772056087.7896223,27.852045060803846,0.3284950310842821,-6.501276842871089,-0.10532631202365333,-1.0852034176037797,9.778319830642745,-1.6953645395215576e-07,0.0010908307693218143,0.0,10.368647099666237,40.87661198439253,-73.0
1772056087.8242116,27.852045060803846,0.3284950310842821,-6.501276842871089,-0.10532631202365333,-1.0852034176037797,9.778319830642745,-1.6953645395215576e-07,0.0010908307693218143,0.0,10.368647099666237,40.87661198439253,-73.0
1772056087.8458924,27.852045060803846,0.3284950310842821,-6.501276842871089,-0.10683356366602006,-1.0834685307801737,9.782226977768788,0.0010903221599599577,0.0032726618444193956,0.001090830782496456,10.368647099666237,40.87661198439253,-73.0
1772056087.8887265,27.852045060803846,0.3284950310842821,-6.501276842871089,-0.10683356366602006,-1.0834685307801737,9.782226977768788,0.0010903221599599577,0.0032726618444193956,0.001090830782496456,10.368647099666237,40.87661198439253,-73.0
1772056087.9428432,27.852045060803846,0.3284950310842821,-6.501276842871089,-0.10783662279691104,-1.0823139829790196,9.788172252242797,0.0,0.0,0.0,10.680913966533138,42.37666053489252,-74.0625
1772056087.9774282,27.852045060803846,0.3284950310842821,-6.501276842871089,-0.10515903577669593,-1.0815451244186638,9.782093430870223,1.6953645395215576e-07,-0.0010908307693218143,0.0,10.680913966533138,42.37666053489252,-74.0625
1772056087.9942172,27.852045060803846,0.3284950310842821,-6.501276842871089,-0.10515903577669593,-1.0815451244186638,9.782093430870223,1.6953645395215576e-07,-0.0010908307693218143,0.0,10.680913966533138,42.37666053489252,-74.0625
