timestamp,yaw,pitch,roll,ax,ay,az,gx,gy,gz,mx,my,mz
1772056131.0116258,-0.03696751701668198,0.6704256864201342,-6.312256171812387,-0.10462252004552855,-1.0707777243923575,9.760894581257084,0.001090830782496456,0.002181661564992912,0.0,10.375,42.0,-74.0
1772056131.0278447,-0.03696751701668198,0.6704256864201342,-6.312256171812387,-0.10307623545336694,-1.0705175668953633,9.77397578066274,-0.001090830782496456,0.002181661564992912,-0.001090830782496456,10.75,41.5625,-74.0
1772056131.0437162,-0.03696751701668198,0.6704256864201342,-6.312256171812387,-0.10204720033041408,-1.0703444349872633,9.78268117274063,0.001090830782496456,0.002181661564992912,0.002181661564992912,10.75,41.5625,-74.0
1772056131.0606139,-0.03696751701668198,0.6704256864201342,-6.312256171812387,-0.10204720033041408,-1.0703444349872633,9.78268117274063,0.001090830782496456,0.002181661564992912,0.002181661564992912,10.75,41.5625,-74.0
1772056131.0790188,-0.03696751701668198,0.6704256864201342,-6.312256171812387,-0.10136238895116445,-1.0702292176364328,9.778439178800909,0.0,0.003272492347489368,0.0,10.375,40.1875,-74.0
1772056131.098902,-0.03696751701668198,0.6704256864201342,-6.312256171812387,-0.10136238895116445,-1.0702292176364328,9.778439178800909,0.0,0.003272492347489368,0.0,10.375,40.1875,-74.0
1772056131.1144433,-0.03696751701668198,0.6704256864201342,-6.312256171812387,-0.10090665462811818,-1.0734976534838365,9.7756161792202,-0.001090830782496456,0.0,-0.001090830782496456,10.375,40.1875,-74.0
1772056131.1268613,-0.03696751701668198,0.6704256864201342,-6.312256171812387,-0.10090665462811818,-1.0734976534838365,9.7756161792202,-0.001090830782496456,0.0,-0.001090830782496456,10.375,40.1875,-74.0
1772056131.143958,-0.03696751701668198,0.6704256864201342,-6.312256171812387,-0.09725825681969745,-1.0756727610294632,9.77373750453421,0.0,-0.002181661564992912,0.001090830782496456,10.0,41.25,-73.5625
1772056131.1673307,-0.03696751701668198,0.6704256864201342,-6.312256171812387,-0.09725825681969745,-1.0756727610294632,9.77373750453421,0.0,-0.002181661564992912,0.001090830782496456,10.0,41.25,-73.5625
1772056131.2480545,5.846297705441118e-07,0.6704150840877724,-6.312156547254287,-0.09817540054078677,-1.0704300473888955,9.772487267516855,-0.001090830782496456,-0.001090830782496456,0.0,10.0,41.25,-73.5625
1772056131.2692268,5.846297705441118e-07,0.6704150840877724,-6.312156547254287,-0.10144244433880821,-1.0670067532742313,9.775000360455188,0.001092941983358641,-0.003271787857033274,0.14180800172453928,9.535883309823786,41.25616118534811,-75.5625
1772056131.2957566,5.846297705441118e-07,0.6704150840877724,-6.312156547254287,-0.10144244433880821,-1.0670067532742313,9.775000360455188,0.001092941983358641,-0.003271787857033274,0.14180800172453928,9.535883309823786,41.25616118534811,-75.5625
1772056131.312755,5.846297705441118e-07,0.6704150840877724,-6.312156547254287,-0.10407194015694592,-1.071376805356254,9.78001790743988,-0.003272491666337539,-2.111427912794858e-06,0.0,9.535883309823786,41.25616118534811,-75.5625
1772056131.376638,5.846297705441118e-07,0.6704150840877724,-6.312156547254287,-0.10582184025052362,-1.07428502620016,9.78335702890852,2.8152372170598107e-06,-0.004363322221783385,0.0,9.973383218760496,41.256443462467125,-73.5625
1772056131.4723203,5.846297705441118e-07,0.6704150840877724,-6.312156547254287,-0.11111007249340325,-1.071939307362368,9.78371287993372,1.4076186085299053e-06,-0.0021816611108916926,0.001090830782496456,10.348181514192662,41.56918534923822,-74.0
1772056131.549029,5.846297705441118e-07,0.6704150840877724,-6.312156547254287,-0.11111007249340325,-1.071939307362368,9.78371287993372,1.4076186085299053e-06,-0.0021816611108916926,0.001090830782496456,10.348181514192662,41.56918534923822,-74.0
1772056131.6127393,5.846297705441118e-07,0.6704150840877724,-6.312156547254287,-0.11111007249340325,-1.071939307362368,9.78371287993372,1.4076186085299053e-06,-0.0021816611108916926,0.001090830782496456,10.348181514192662,41.56918534923822,-74.0
1772056131.6508942,5.846297705441118e-07,0.6704150840877724,-6.312156547254287,-0.1105056386993463,-1.0746593650016694,9.782470880120304,7.038093042649527e-07,-0.0010908305554458463,0.0,10.348181514192662,41.56918534923822,-74.0
1772056131.8754067,5.846297705441118e-07,0.6704150840877724,-6.312156547254287,-0.10983211131898457,-1.0832454245629017,9.78109429197686,-0.0010922381740543763,0.0021809573015874276,0.002181661564992912,11.036124949423085,40.88212907066755,-74.5
1772056131.9470844,5.846297705441118e-07,0.6704150840877724,-6.312156547254287,-0.10983211131898457,-1.0832454245629017,9.78109429197686,-0.0010922381740543763,0.0021809573015874276,0.002181661564992912,11.036124949423085,40.88212907066755,-74.5
1772056132.0858047,5.846297705441118e-07,0.6704150840877724,-6.312156547254287,-0.10965516981353239,-1.0821834597010203,9.777383127379238,7.038093042649527e-07,-0.0010908305554458463,-0.001090830782496456,9.973867122393093,40.506443618575624,-74.5
1772056132.198798,5.846297705441118e-07,0.6704150840877724,-6.312156547254287,-0.10953741721822008,-1.0814767339483629,9.774913388795946,-0.0010915343647501113,0.0010901267461415813,0.0,9.536125261640084,40.88116126340236,-74.5
1772056132.2788222,0.21422118916336894,0.7104700556504305,-6.429947454883587,-0.10945905418142242,-1.0810064158546133,9.773269805357552,-0.06762797539112114,-0.005497788954093658,0.09272061651219876,10.348625092522543,40.881685492337674,-74.75
1772056132.3197777,0.21422118916336894,0.7104700556504305,-6.429947454883587,-0.10945905418142242,-1.0810064158546133,9.773269805357552,-0.06762797539112114,-0.005497788954093658,0.09272061651219876,10.348625092522543,40.881685492337674,-74.75
1772056132.347862,-0.14280015068491445,0.7185656323455217,-6.320051097121009,-0.14949859609609656,-1.1576568770585272,9.77552113064665,0.03818681134295153,-0.011974502784255036,-0.06326818538479445,10.348625092522543,40.881685492337674,-74.75
1772056132.3890507,-0.14280015068491445,0.7185656323455217,-6.320051097121009,-0.14949859609609656,-1.1576568770585272,9.77552113064665,0.03818681134295153,-0.011974502784255036,-0.06326818538479445,10.348625092522543,40.881685492337674,-74.75
1772056132.5076036,-0.15199775954844758,0.7530570319160007,-6.362454001520645,-0.26970181644728586,-1.3726377741932496,9.766984027355637,-0.0021668811155021285,-0.0229088492829713,-0.013089969389957472,10.724068592798174,40.19442758725343,-71.5625
1772056132.588127,-0.4115224049418427,0.7452390514666547,-6.47625639253618,-0.3498014726645486,-1.3517947202008744,9.788063574139715,-0.015265293492503463,-0.009827328329272326,-0.025089107997418487,10.724068592798174,40.19442758725343,-71.5625
1772056132.841762,-0.6313095101454254,0.7887157026011621,-6.498889142439519,-0.3261542378752194,-1.3612900371861472,9.775330883391996,-0.0032879754710313683,0.023996160791895822,-0.026179938779914945,10.348625092522543,40.881685492337674,-72.0
1772056132.9395487,-1.159223788074356,0.7021302666609399,-6.5578825885231735,-0.26363103705289587,-1.2973315173862519,9.773547643347504,-0.008720310159828385,-0.009823105473446735,-0.03490658503988659,10.348625092522543,40.881685492337674,-72.0
1772056133.0841222,-1.237470087132517,0.718190069818402,-6.600439136283482,-0.194306705265568,-1.2665125952313099,9.762666626006803,-0.015273035394850377,0.002171807780631983,-0.014180800172453928,10.724068592798174,40.19442758725343,-70.0625
1772056133.134986,-1.237470087132517,0.718190069818402,-6.600439136283482,-0.194306705265568,-1.2665125952313099,9.762666626006803,-0.015273035394850377,0.002171807780631983,-0.014180800172453928,10.724068592798174,40.19442758725343,-70.0625
1772056133.2222562,-1.2227378529881854,0.7049534777575805,-6.607184169760254,-0.14574312875418763,-1.2944507621571664,9.82867684396575,-0.002185180157413017,0.005452745158620701,-0.003272492347489368,10.723383062651996,41.256927366099724,-70.5
1772056133.3761632,-1.1135252460225746,0.7531540741566449,-6.620961844002972,-0.15024025673861297,-1.2829610421621105,9.87260590663498,-0.0010908305554458463,-7.038093042649527e-07,0.030543261909900768,11.473382906543495,41.257411269732316,-68.75
1772056133.4312851,-1.1135252460225746,0.7531540741566449,-6.620961844002972,-0.15024025673861297,-1.2829610421621105,9.87260590663498,-0.0010908305554458463,-7.038093042649527e-07,0.030543261909900768,11.473382906543495,41.257411269732316,-68.75
1772056133.4963326,-0.9045433712197813,0.7721429367877279,-6.633709657537345,-0.15323304517603684,-1.2753147618539828,9.828247749560543,2.111427912794858e-06,-0.003272491666337539,-0.00545415391248228,11.035882997606787,41.2571289926133,-67.1875
1772056133.6171262,-0.7310179637037025,0.795982824557518,-6.667612882913345,-0.155224712449505,-1.2702262477234716,9.798727891540587,0.001093645792662906,-0.00436261841247912,0.032724923474893676,11.473624858359793,40.88241134778657,-68.375
1772056133.7592816,-0.7310179637037025,0.795982824557518,-6.667612882913345,-0.155224712449505,-1.2702262477234716,9.798727891540587,0.001093645792662906,-0.00436261841247912,0.032724923474893676,11.473624858359793,40.88241134778657,-68.375
1772056133.8548112,18.800649605968186,0.8256680604893678,-6.6660192204288595,-0.11643039546174508,-1.2333628889142159,9.789118090908685,1.1260948868239243e-05,-0.01745328888713354,0.05999569303730508,11.473624858359793,40.88241134778657,-65.5625
1772056133.9126942,19.004758569819185,0.8571533929163456,-6.696744767592889,-0.14031571107191912,-1.2214877690895343,9.84085779704558,-0.0076365176974251886,0.0010859038903159915,0.04581489286485115,12.161850570709232,39.7578551602792,-66.5
1772056134.009635,19.004758569819185,0.8571533929163456,-6.696744767592889,-0.14031571107191912,-1.2214877690895343,9.84085779704558,-0.0076365176974251886,0.0010859038903159915,0.04581489286485115,12.161850570709232,39.7578551602792,-66.5
1772056134.1115952,19.428711462359797,0.8957526613665372,-6.691120371841687,-0.2243584088495219,-1.2497270945460333,9.85709363573772,0.0032781221407716587,-0.008724533015653976,0.06872233929727672,12.161124715260335,40.88285492611645,-66.0
1772056134.1506026,19.548981078948614,0.9085039215484254,-6.682146655793597,-0.2426991795844644,-1.2532238403503095,9.791163612903281,-0.0010880153182287865,-0.00436402603108765,0.04363323129985824,12.161124715260335,40.88285492611645,-64.0
1772056134.195882,19.711087101541782,0.9329692924953674,-6.685360074493871,-0.22146875549414138,-1.2321135257217248,9.8208803767546,-0.0054590794423590855,0.0076322948415995994,0.07744898555724837,12.161124715260335,40.88285492611645,-64.0
1772056134.2775939,20.008825259098618,0.9641912406828254,-6.680757127132992,-0.16234685901880008,-1.1663960812975782,9.834948421219185,0.002186587776021547,-0.007634406269512394,0.05999569303730508,12.160882763444038,41.2578548480622,-64.5
1772056134.3377898,20.05778677957121,0.9739340273276493,-6.6790368376108376,-0.1044402328242087,-1.1709445036274668,9.78311644343409,0.005459783251663351,-0.008723125397045445,0.03381575425739013,12.161568293590216,40.19535506921591,-64.75
1772056134.4140537,20.16336411596804,0.9800546943071361,-6.677873975487916,-0.1930074469597138,-1.1907789976605307,9.859011527560778,4.926665129854669e-06,-0.007635813888120924,0.016362461737446838,12.161568293590216,40.19535506921591,-64.75
1772056134.4783936,20.227423303566137,0.9894842542178537,-6.669387234166431,-0.15160539968609563,-1.187188328350193,9.916209081658087,0.014175166746361883,0.008735793964522214,0.04690572364734761,12.536366589022384,40.508096955987,-64.5
1772056134.5583022,20.376694506122643,0.9981945545115705,-6.6681915153978055,-0.15414800740476708,-1.2015437576303083,9.954273414971302,-0.0010844962717074618,-0.00981817880831688,0.04363323129985824,12.536366589022384,40.508096955987,-64.5
1772056134.5780814,20.39575879375893,1.0268537459688896,-6.66287374345926,-0.1558336095919272,-1.2211324684887293,9.89263189919448,-0.004368952696217505,0.00872382920634971,-0.004363323129985824,12.537092444471279,39.38309719014975,-63.5625
1772056134.6721106,20.353589249403687,1.0363044353826554,-6.689943596923807,-0.16364558104017654,-1.2341728533093215,9.851610159025853,-0.002186587776021547,0.007634406269512394,-0.00545415391248228,12.537092444471279,39.38309719014975,-63.5625
1772056134.8115852,20.01311411164285,1.0160024288563183,-6.7712721196880645,-0.24918745694251446,-1.1492397742019316,9.847726431137731,-0.017454696505742072,0.0021704001620234535,-0.05672320068981571,12.974592353407987,39.38337946726876,-62.375
1772056134.9484513,19.78565699382544,1.003723780952861,-6.77999261629244,-0.30611461979015514,-1.0927177588206232,9.851832077026907,-0.012006878012251223,0.011991394207557394,-0.07963064712224129,12.974592353407987,39.38337946726876,-62.375
1772056135.104755,19.1487343195711,0.9545867861333014,-6.844192160257426,-0.19634781471072213,-1.1224561377205382,9.795063460021941,0.003272491666337539,2.111427912794858e-06,-0.07963064712224129,13.663060017573724,37.88382335781564,-61.5625
1772056135.1640086,19.01538962767547,0.9282026679544934,-6.86260121004316,-0.10365387022653108,-1.1383427430312971,9.759918559008854,-0.0010866076996202565,-0.006545687141979343,-0.07417649320975901,13.225761735150598,37.57104114574184,-60.0
1772056135.2145357,19.01538962767547,0.9282026679544934,-6.86260121004316,-0.10365387022653108,-1.1383427430312971,9.759918559008854,-0.0010866076996202565,-0.006545687141979343,-0.07417649320975901,13.225761735150598,37.57104114574184,-60.0
1772056135.2932737,19.337752630178993,0.8799282453782212,-6.963654553191769,-0.024300780695563864,-1.2027975499250458,9.747726102180142,-0.00436402603108765,0.0010880153182287865,-0.07635815477475191,13.663261644087306,37.57132342286085,-59.1875
1772056135.3709376,19.401414869666084,0.8897181951378154,-6.997769428573924,-0.03595982918361533,-1.2386708254876058,9.755176969816626,-0.010913936028892582,0.008719606350524121,-0.07635815477475191,13.226729542415791,36.071041457958835,-59.1875
1772056135.457303,19.678230955789964,0.8988222741880788,-7.032500635126261,-0.1373819040217705,-1.262604521547458,9.760135438997061,-0.00546119087027188,0.010904786507937138,-0.06544984694978735,13.226729542415791,36.071041457958835,-59.1875
1772056135.5447376,20.071392720696952,0.8746919024798838,-7.038037371385436,-0.20485989560954823,-1.3052930170068044,9.713258569237121,-0.004361914603174855,-0.002184476348108752,-0.08290313946973066,13.22697149423209,35.69604153601309,-60.0
1772056135.5928137,20.071392720696952,0.8746919024798838,-7.038037371385436,-0.20485989560954823,-1.3052930170068044,9.713258569237121,-0.004361914603174855,-0.002184476348108752,-0.08290313946973066,13.22697149423209,35.69604153601309,-60.0
1772056135.660484,19.863489433990427,0.9000434478146345,-7.0542746190991235,-0.1738266470676743,-1.3057075661416095,9.633445693558555,0.020716631032515635,0.014194169597577036,-0.07308566242726255,13.227697349680986,34.57104177017584,-58.5
1772056135.7510288,19.679739052824416,0.8899409325619144,-7.062809280852913,-0.16224146072295442,-1.2871028918914145,9.709230639840644,0.002187995394630077,-0.009816067380404086,-0.07963064712224129,14.040721409498756,33.75906616822869,-60.5
1772056135.7975187,20.641032897041466,0.8846722823260772,-7.052614432940705,-0.15789618417708604,-1.244617848188544,9.759664675018055,1.1964758172504197e-05,-0.018544119442579388,-0.09926560120717749,14.040721409498756,33.75906616822869,-60.5
1772056135.8536413,20.641032897041466,0.8846722823260772,-7.052614432940705,-0.21187133836361793,-1.2163812169920014,9.796573073750855,-0.004371767933434564,0.013087151428133097,-0.08072147790473774,14.728382567610165,33.50950979859474,-59.5625
1772056135.9832623,21.784506311502298,0.833591947973659,-7.1164881856930995,-0.24780415022642904,-1.177519388288227,9.821135200813705,-0.01635471642934078,-0.012009693249468283,-0.07090400086226964,14.728382567610165,33.50950979859474,-59.5625
1772056136.0474725,21.990830879547744,0.8504425523276713,-7.135706618423572,-0.27171703512532075,-1.1516572754009362,9.837481021997094,-0.004366137459000445,0.004360506984566325,-0.08399397025222712,14.041608566158517,32.38406645442761,-61.5625
1772056136.1615913,22.956965964834495,0.8282415694680084,-7.145023205931982,-0.20399870106024956,-1.141082593138392,9.788146972668104,-0.004366137459000445,0.004360506984566325,-0.06763150851478027,14.041608566158517,32.38406645442761,-61.5625
1772056136.20698,23.210585923282466,0.7726020975385794,-7.143458928774173,-0.16893154843777525,-1.1909186222543242,9.735245043693185,-0.003259119289556505,-0.020727891981383875,-0.08617563181722002,15.478866315134262,32.75999385833584,-60.0
1772056136.2833464,24.236732253993775,0.7353058807422352,-7.165035465619061,-0.1802216121094416,-1.2762934666857866,9.676610438916658,-0.014182204839404532,0.002172511589936248,-0.05999569303730508,14.728866471242762,32.75950995470324,-62.0
1772056136.372049,24.732314138081946,0.721404323800719,-7.185898032325424,-0.20331720074841514,-1.2307556572640406,9.751336742523941,-0.018548342298404977,0.006533018574502574,-0.05890486225480862,14.728866471242762,32.75950995470324,-62.0
1772056136.4281902,25.106512525939696,0.717554931097864,-7.189790017552266,-0.218667632452543,-1.2305567528840005,9.720783581851416,-0.002190810631847137,0.014179389602187472,-0.07963064712224129,16.541366093980553,32.76067938848202,-61.5625
1772056136.5037498,25.43054531291768,0.7021819395224643,-7.188563167845213,-0.29244028248607457,-1.2304653916042254,9.737247023505532,0.00436824888691324,-0.007632998650903865,-0.10035643198967395,16.54184999761315,32.010679544590516,-61.5625
1772056136.5516562,26.359097412310536,0.6701509267315494,-7.196240896469763,-0.3415351569888919,-1.2304045916931077,9.711407031237139,0.0032774183314673937,-0.0076337024602081294,-0.08617563181722002,16.54184999761315,32.010679544590516,-61.5625
1772056136.6377697,26.359097412310536,0.6701509267315494,-7.196240896469763,-0.3415351569888919,-1.2304045916931077,9.711407031237139,0.0032774183314673937,-0.0076337024602081294,-0.08617563181722002,16.54184999761315,32.010679544590516,-61.5625
1772056136.8098607,27.32096807277712,0.618353824416012,-7.203271197825906,-0.35750327531232806,-1.1969022285095388,9.731007033814663,-0.004367545077608975,0.006542168095458018,-0.07635815477475191,16.541083816861537,33.198179297418726,-61.5625
1772056136.845058,27.902172202255738,0.5630912349894541,-7.2372805010194075,-0.35474943563679656,-1.1745981469276903,9.680493494144562,-0.0032781221407716587,0.008724533015653976,-0.06763150851478027,16.541083816861537,33.198179297418726,-61.5625
1772056136.951497,27.615221247365735,0.5295321525844626,-7.263939702286045,-0.3261429483130645,-1.1798084295959959,9.75726598410886,-0.018540600396058062,-0.0054661175354017355,-0.03381575425739013,17.728583569689746,33.19894547817034,-62.75
1772056137.039751,27.544101921967446,0.5250320141140475,-7.264461006178355,-0.16995394081910575,-1.1865324359468394,9.697968532233656,0.00872382920634971,0.004368952696217504,0.037088246604879506,17.728583569689746,33.19894547817034,-62.75
1772056137.1194327,27.544101921967446,0.5250320141140475,-7.264461006178355,-0.16995394081910575,-1.1865324359468394,9.697968532233656,0.00872382920634971,0.004368952696217504,0.037088246604879506,17.728583569689746,33.19894547817034,-62.75
1772056137.1797607,27.551441278771396,0.5170167320602355,-7.259202125915812,-0.039251012988992855,-1.1909899208030497,9.722063862845715,0.0076351100788166594,0.0010957572205757009,0.007635815477475192,18.47886569070026,32.76192947286623,-62.75
1772056137.2075343,27.50414465837072,0.485142776510513,-7.259569221468094,0.02100396986256693,-1.2474953696165285,9.738099036205561,7.74190234691448e-06,-0.011999136109904308,-0.007635815477475192,18.47886569070026,32.76192947286623,-62.75
1772056137.2524524,27.546064088322304,0.49459547305810786,-7.257530541085725,0.004236100670130792,-1.28513580539336,9.748770264951917,0.0,0.0,0.01090830782496456,17.355519262274385,30.19870415078804,-64.75
1772056137.3267186,27.595591785759243,0.5163655005807829,-7.27445144873129,-0.04369305070233214,-1.3503501681692802,9.846189864574804,-0.011997024681991514,-0.0032802335686844537,0.015271630954950384,17.355519262274385,30.19870415078804,-64.75
1772056137.386297,27.595591785759243,0.5163655005807829,-7.27445144873129,-0.04369305070233214,-1.3503501681692802,9.846189864574804,-0.011997024681991514,-0.0032802335686844537,0.015271630954950384,17.355519262274385,30.19870415078804,-64.75
1772056137.4590514,27.6071830921796,0.5476515865744592,-7.281092795596811,-0.07555699130287191,-1.4439262632702734,9.8073230569487,-0.004370360314826034,0.010905490317241402,0.011999138607461015,18.042817492661342,30.51164766407271,-64.5
1772056137.4938803,27.644404697195615,0.5500449130752557,-7.281247655709337,-0.06665608872952218,-1.506180684706031,9.801528300888135,0.0076337024602081294,0.0032774183314673937,0.04799655442984406,18.042817492661342,30.51164766407271,-64.5
1772056137.5182836,27.68589670671927,0.5662793599964568,-7.277507288207233,-0.06077148657751334,-1.4873983085451337,9.797671955461496,0.0010830886530989318,0.011999839919208574,0.022907446432425576,19.168018885012177,30.199873584566813,-66.0625
1772056137.5560164,27.720750223074464,0.5804202550891502,-7.267117929397064,-0.033461155326053975,-1.4414326289364952,9.795105600658268,0.013089262856045891,0.0010992762670970256,0.011999138607461015,19.168018885012177,30.199873584566813,-66.0625
1772056137.612465,27.78591585288532,0.5981928919599534,-7.263774478961223,-0.04875481132332343,-1.3841036773615687,9.719805262643755,0.003269676429120479,0.00436543364969618,0.032724923474893676,18.042817492661342,30.51164766407271,-66.0
1772056137.723197,28.808351460015793,0.639185458071845,-7.249507360314482,-0.05893256854817475,-1.3459519004948055,9.669693728854988,-0.0032802335686844537,0.011997024681991514,0.07526732399225546,18.042817492661342,30.51164766407271,-66.0
1772056137.8043456,29.15420924132988,0.6814640250903555,-7.2425425957850305,-0.09698921121767215,-1.2802909655859027,9.716707743945179,-0.003271787857033274,-0.001092941983358641,0.06981317007977318,17.355962840604263,29.511204293887495,-64.75
1772056137.8480868,29.39120747372034,0.6964354578284477,-7.240858314169783,-0.06428408446954752,-1.2567777681475576,9.764640604274897,0.004367545077608975,-0.006542168095458018,0.08726646259971647,19.165881643968206,33.51237289508761,-61.5625
1772056137.8999696,29.71755405995782,0.696763428026832,-7.244271079036978,-0.06928655089411877,-1.2311119311370116,9.786504052257234,-0.005442891828360992,-0.017456807933654866,0.11562806294462433,19.165881643968206,33.51237289508761,-61.5625
1772056137.9531014,30.077916597116786,0.7245081108574831,-7.2333514835313855,-0.049234391857501676,-1.1604947191599144,9.791018597536803,-0.002175326827153308,-0.009818882617621146,0.13199052468207118,20.667816946281594,30.5133413267868,-64.875
1772056137.971873,30.077916597116786,0.7245081108574831,-7.2333514835313855,-0.049234391857501676,-1.1604947191599144,9.791018597536803,-0.002175326827153308,-0.009818882617621146,0.13199052468207118,20.667816946281594,30.5133413267868,-64.875
1772056138.0118303,30.427338033095904,0.7121921873192535,-7.2114998554542336,-0.05927114857688417,-1.1670366375878656,9.763916971623708,-0.009797768338493199,-0.030549589836222083,0.15926129424448257,20.667816946281594,30.5133413267868,-64.875
1772056138.0617528,31.018413078947184,0.777554429422464,-7.1780167912124115,-0.07267525259422661,-1.1178727516113653,9.775987147689415,1.4076186085299053e-05,-0.021816611108916924,0.1908953869368798,19.542817180444345,30.512615471337906,-64.5
1772056138.1681366,31.713683729646498,0.8375475718441195,-7.154053667739035,-0.08151351935764665,-1.2122689531105801,9.784019715028442,-0.0021788458736746326,-0.004364729840391915,0.21489366415180183,19.542817180444345,30.512615471337906,-64.5
1772056138.2274249,33.0117165295263,0.8601612473662287,-7.168804297513472,-0.08741255341699777,-1.248327682645227,9.789365298862908,0.0076421481718593086,-0.009812548333882763,0.22907446432425577,19.978865378483263,32.76289728013142,-62.75
1772056138.2965593,34.15794156975941,0.8989279575473681,-7.147878509570816,-0.10137362772012444,-1.272330839194959,9.749436272995508,-0.002173215399240513,-0.013091374283958686,0.21380283336930536,20.22934923007969,32.013058737450784,-64.0625
1772056138.3478389,34.15794156975941,0.8989279575473681,-7.147878509570816,-0.10137362772012444,-1.272330839194959,9.749436272995508,-0.002173215399240513,-0.013091374283958686,0.21380283336930536,20.22934923007969,32.013058737450784,-64.0625
1772056138.4164054,34.83820154267872,0.9393071099295343,-7.135820187497364,-0.11066456671343662,-1.2883046717459785,9.7228639523172,0.002188699203934342,-0.010906897935849933,0.2007128639793479,20.22934923007969,32.013058737450784,-64.0625
1772056138.4898188,35.76148484613889,0.992535249042312,-7.114712602947067,-0.12686780788412522,-1.3223573307934724,9.728596151689292,0.0011006838857055556,-0.015270923966937584,0.20398535632683726,20.6666071872001,32.38834093651555,-63.5625
1772056138.557351,36.72583092484003,1.0236412026923762,-7.108342003297855,-0.1242704398369459,-1.3450103618673517,9.732410866338556,0.007649890074206223,-0.02181168444378707,0.20180369476184434,20.6666071872001,32.38834093651555,-63.5625
1772056138.5857368,37.698992621113725,1.0552235841513817,-7.101637680483766,-0.10247988747883888,-1.3466923072582189,9.724914181202529,-0.013078705716481917,-0.01746173459878472,0.21925698728178766,20.229550856593274,31.700558802495994,-64.5
1772056138.662029,37.698992621113725,1.0552235841513817,-7.101637680483766,-0.10247988747883888,-1.3466923072582189,9.724914181202529,-0.013078705716481917,-0.01746173459878472,0.21925698728178766,20.229550856593274,31.700558802495994,-64.5
1772056138.7424872,38.8531063154846,1.104235700536959,-7.068919837778676,-0.08800657597051917,-1.3043251799836009,9.719925220987962,0.0054604870609676155,-0.009813955952491292,0.19416787928436915,20.22983313371229,31.263058893559286,-65.25
1772056138.801202,40.34638506802858,1.1597025647304455,-7.015153649957078,-0.09841735723594755,-1.3196297228914962,9.719950235402825,0.010925900787065086,-0.02726372579310351,0.23343778745424157,20.22983313371229,31.263058893559286,-65.25
1772056138.8693316,41.49065858027994,1.162461779393309,-6.983803923496004,-0.10537367354162465,-1.2863282820900752,9.726657105631126,0.004381621263694274,-0.028358779204374945,0.20180369476184434,19.54426889134214,28.262615939663405,-66.75
1772056138.9259195,42.645379715441884,1.1795058926664683,-6.9699135075590455,-0.07981449762774255,-1.0042618084069352,9.800945714735324,-0.010891414131156104,-0.02618697142374296,0.2694352032766246,19.169712547726267,27.574874130946565,-66.75
1772056139.0011246,43.29121359431169,1.2148907494323016,-6.972290364946625,-0.09636468867828027,-1.0363152840406835,9.803974474299352,0.010921677931239496,-0.02071874246042843,0.19962203319685143,18.731244831524364,29.07459154161055,-67.5625
1772056139.0605307,43.91641685109651,1.228206293440448,-6.9603650073182415,-0.10733980686370662,-1.117858512213099,9.805990079955752,0.0010999800764012906,-0.014180093411491738,0.2301652951067522,18.731244831524364,29.07459154161055,-67.5625
1772056139.1431963,44.53668305152614,1.2606458896742687,-6.940970690441938,-0.1380960932920534,-1.1152728404523389,9.814021666418933,-0.00872664444356677,-5.630474434119621e-06,0.25743606466916363,19.544954421488317,27.200116160817114,-66.0
1772056139.2323568,44.92149026233457,1.2805932332442442,-6.983425093124483,-0.15852736754120383,-1.170418991967287,9.862853049686633,0.012014619914598137,-0.023990530317461702,0.11453723216212788,19.544954421488317,27.200116160817114,-66.0
1772056139.3021033,44.50441944387895,1.3061736021716546,-7.020305527651474,-0.23125994697594304,-1.3151420393677533,9.827824248389312,1.4076186085299053e-06,-0.0021816611108916926,-0.007635815477475192,19.168744740461072,29.074873818729564,-68.5
1772056139.354295,44.53555541057203,1.3081099202088546,-7.0200947270084155,-0.21049153842623988,-1.3034232363134248,9.811826503071229,0.006544983332675078,4.222855825589716e-06,0.016362461737446838,19.543462385287807,29.512615679482572,-69.5625
1772056139.4092317,43.95008006578016,1.3543811619575623,-7.099173272837155,-0.19675672582575657,-1.161820063346288,9.720897501292903,-0.04365433649696179,0.032696764291204786,-0.08726646259971647,19.543462385287807,29.512615679482572,-69.5625
1772056139.4528472,43.43632479998215,1.3641126973966482,-7.133863505599933,-0.17749469714386862,-1.2013826991430077,9.727287500499319,-0.008732978727305156,0.009811844524578497,-0.11017390903214205,19.543018806957928,30.200115536383112,-68.875
1772056139.4967468,43.13629592513195,1.3674376028679043,-7.174152801844606,-0.28502233046299363,-1.348212885881923,9.554249053102295,0.009802695003623053,0.022913775948101157,-0.1538071403320003,19.543018806957928,30.200115536383112,-68.875
1772056139.5604265,41.95722029043627,1.3387308830899207,-7.207981479963085,-0.2361567728766236,-1.445849036794097,9.56955325591114,0.005434446116709812,0.03054677459900502,-0.16580627893946132,18.04398692644012,28.69914804133492,-70.5
1772056139.624761,41.39421059299863,1.3278446260153036,-7.219941124938834,-0.23039170340853043,-1.52087740385024,9.552977138262726,0.006533018574502574,0.018548342298404977,-0.14289883250703572,18.04398692644012,28.69914804133492,-70.5
1772056139.6789277,40.96120877234534,1.3021730185340492,-7.20929030622879,-0.22662202082810015,-1.467109502661708,9.55867147567167,0.003256304052339445,0.02509121420316726,-0.16689710972195776,18.731486783340664,28.6995916196648,-70.0625
1772056139.7353818,40.29119028218695,1.2731327173099518,-7.212093581690211,-0.22744765878061218,-1.4480552783850877,9.562460993607404,0.0032640459546863596,0.013092078093262951,-0.15271630954950383,18.731486783340664,28.6995916196648,-70.0625
1772056139.7797682,39.701339608150114,1.2754839823823816,-7.204226959926282,-0.2280079030264061,-1.4186493499233674,9.585053545705863,0.005428111832971427,0.04036424959801764,-0.13853550937704992,18.04330139629394,29.76164782018121,-69.5625
1772056139.8254251,38.9716086843292,1.278514470621288,-7.224568479494521,-0.1982963230369286,-1.3656094983668354,9.600088636752044,-0.008742832057564865,0.025083472300820347,-0.15707963267948966,18.04330139629394,29.76164782018121,-69.5625
1772056139.8928792,38.43754894522127,1.277901970280232,-7.219079154402682,-0.1785235984540268,-1.330312069649927,9.610094321890307,-0.0032844564245100433,0.018542008014666593,-0.13853550937704992,16.543301708510942,29.760680012916016,-70.0625
1772056139.9232328,37.920643794878494,1.2141707744021606,-7.220295569693377,-0.16200053556838007,-1.3369258659541334,9.623443216993632,0.003273195475641804,-0.0010887191275330515,-0.1538071403320003,16.543301708510942,29.760680012916016,-70.0625
1772056139.9897985,37.920643794878494,1.2141707744021606,-7.220295569693377,-0.16200053556838007,-1.3369258659541334,9.623443216993632,0.003273195475641804,-0.0010887191275330515,-0.1538071403320003,16.543301708510942,29.760680012916016,-70.0625
1772056140.0569634,36.80675910202268,1.1593423354068673,-7.256052843648687,-0.3330941867647908,-1.367794354385596,9.68280862403409,0.005447114684186582,0.010911824600979787,-0.16580627893946132,16.542817804878343,30.510679856807517,-72.0625
1772056140.1014876,36.43988749153774,1.142771403374541,-7.257769621011464,-0.3786403171615957,-1.2983861801285401,9.718665336700814,-0.006547798569892138,0.004359099365957795,-0.1636246173744684,17.73124503966903,29.073946336767087,-72.5
1772056140.1799774,35.741466116638925,1.1117999461485513,-7.260285035294693,-0.2617464491302787,-1.282206850179927,9.602032886727379,-0.018549749917013508,0.008714679685394267,-0.15162547876700738,17.73124503966903,29.073946336767087,-72.5
1772056140.2147138,35.741466116638925,1.1117999461485513,-7.260285035294693,-0.2617464491302787,-1.282206850179927,9.602032886727379,-0.018549749917013508,0.008714679685394267,-0.15162547876700738,17.73124503966903,29.073946336767087,-72.5
1772056140.244365,35.407511496458085,1.0307959892494007,-7.260397927507358,-0.1839548857455023,-1.271439686834083,9.524415294139892,0.00872945968078383,-0.004357691747349265,-0.13526301702956053,16.542817804878343,30.510679856807517,-73.25
1772056140.294865,35.1795305484819,1.025119864419855,-7.266918617701552,-0.14891102435689635,-1.2642850513158963,9.47276165331824,-0.010906897935849933,-0.002188699203934342,-0.08072147790473774,16.542817804878343,30.510679856807517,-73.25
1772056140.3494103,34.80899598143046,0.9618717172406415,-7.260664962095452,-0.08998102353189746,-1.2841983847779181,10.022776440206169,-0.0076266643671654795,-0.014185723885925858,-0.09272061651219876,15.855519574491385,30.197736343522845,-74.0625
1772056140.40172,34.80899598143046,0.9618717172406415,-7.260664962095452,-0.08998102353189746,-1.2841983847779181,10.022776440206169,-0.0076266643671654795,-0.014185723885925858,-0.09272061651219876,15.855519574491385,30.197736343522845,-74.0625
1772056140.4631238,34.17844320876233,0.9723756906386568,-7.287201088955382,-0.043779235487935296,-1.3799774617857643,9.750417408639876,-0.019635653807329498,0.0010781619879690772,-0.10035643198967395,16.230075918107254,30.885478152239685,-74.5
1772056140.4824817,34.17844320876233,0.9723756906386568,-7.287201088955382,-0.043779235487935296,-1.3799774617857643,9.750417408639876,-0.019635653807329498,0.0010781619879690772,-0.10035643198967395,16.230075918107254,30.885478152239685,-74.5
1772056140.5435147,33.506294603604026,0.9120489580636411,-7.282985794798917,-0.07234930261497997,-1.3344654125803677,9.666616167292872,0.007634406269512394,0.002186587776021547,-0.1265363707695889,15.855519574491385,30.197736343522845,-74.875
1772056140.5816166,33.225051629251986,0.8700332006496476,-7.278090483750849,-0.06460558074870454,-1.3028763818986826,9.90859614006029,0.0032802335686844537,-0.011997024681991514,-0.07853981633974483,15.479834122399454,31.259994170552837,-76.5
1772056140.6453774,33.04221262390124,0.8543949454488731,-7.265840849607278,-0.05945222034973941,-1.2818542348526154,10.069631108843597,0.025086287538037405,0.004379509835781479,-0.09053895494720585,15.479834122399454,31.259994170552837,-76.5
1772056140.686687,32.80128157455026,0.8438316442761284,-7.258844781695226,-0.05936782758208794,-1.2678663891085025,9.557952415836333,0.02397434270346361,0.037103722689852604,-0.1265363707695889,14.041850517974815,32.00906653248186,-75.6875
1772056140.8386784,31.726769362049673,0.7804191115331904,-7.308955998585436,-0.2192980807917482,-1.2884049837166691,9.57479094040207,-0.004357691747349265,-0.00872945968078383,-0.16253378659197193,13.665882788763874,33.50882426844856,-77.6875
1772056140.8663125,31.42077987095831,0.779214086708655,-7.298570238446595,-0.25275951404385383,-1.2053797344189887,9.640090551465654,0.01524629064128831,0.039279753326310174,-0.1930770485018727,13.665882788763874,33.50882426844856,-77.6875
1772056140.8820071,31.42077987095831,0.779214086708655,-7.298570238446595,-0.25275951404385383,-1.2053797344189887,9.640090551465654,0.01524629064128831,0.039279753326310174,-0.1930770485018727,13.665882788763874,33.50882426844856,-77.6875
1772056140.907671,31.186858585861913,0.768340686941039,-7.262331554048581,-0.32187006965053755,-1.1334320193607823,9.763829394159684,0.03925371238205237,0.025114439910208,-0.23889194136672387,13.665882788763874,33.50882426844856,-77.6875
1772056140.9341927,30.552920506156813,0.6881601624207493,-7.22679273724551,-0.2074071162568379,-0.9148473595852977,9.89969799903623,0.014187131504534389,-0.009808325478057172,-0.29561514205653955,13.66491498149868,35.00882395623156,-75.6875
1772056140.9579651,30.552920506156813,0.6881601624207493,-7.22679273724551,-0.2074071162568379,-0.9148473595852977,9.89969799903623,0.014187131504534389,-0.009808325478057172,-0.29561514205653955,13.66491498149868,35.00882395623156,-75.6875
1772056140.9825056,30.64758737383906,0.6713477147616328,-7.196008614941999,-0.1312332994083,-0.7693817102553528,9.990117037829807,0.017465957454610312,-0.019623689049156994,0.10799224746714914,13.66491498149868,35.00882395623156,-75.6875
1772056141.0190222,30.661601273807506,0.6913170887699253,-7.212629357836537,-0.08049946784965256,-0.7361330547940417,9.9833876639537,0.0032767145221631287,-0.006542871904762283,-0.039269908169872414,12.978382931863331,33.50838069011868,-76.0625
1772056141.0645387,30.661601273807506,0.6913170887699253,-7.212629357836537,-0.08049946784965256,-0.7361330547940417,9.9833876639537,0.0032767145221631287,-0.006542871904762283,-0.039269908169872414,12.978382931863331,33.50838069011868,-76.0625
1772056141.101523,30.682659519550914,0.7080211459809864,-7.215620910572077,-0.2037928577479227,-0.9683363221032733,9.978909340811182,-0.0065562442815433174,0.017449066031307952,0.037088246604879506,12.978382931863331,33.50838069011868,-76.0625
1772056141.1337824,30.682659519550914,0.7080211459809864,-7.215620910572077,-0.2037928577479227,-0.9683363221032733,9.978909340811182,-0.0065562442815433174,0.017449066031307952,0.037088246604879506,12.978382931863331,33.50838069011868,-76.0625
1772056141.15025,30.63308285927316,0.6846129943145629,-7.221416205667209,-0.28584323144781315,-1.1228650026171125,9.975929066785984,-0.01745328888713354,-1.1260948868239243e-05,-0.02945243112740431,12.979108787312226,32.38338092428143,-76.5
1772056141.1817613,30.654867560801314,0.6909038811152242,-7.212786140648746,-0.26018791542213726,-1.1888540934044198,9.910388605274989,0.007637221506729454,-0.002176734445761838,0.019634954084936207,12.979108787312226,32.38338092428143,-76.5
1772056141.2424617,30.654867560801314,0.6909038811152242,-7.212786140648746,-0.23312889665488754,-1.155825068075901,9.866772160274348,0.0010971648391842309,-0.009816771189708352,-0.01090830782496456,12.540721721715757,33.7580983609635,-77.25
1772056141.255715,30.654867560801314,0.6909038811152242,-7.212786140648746,-0.22515675496748466,-1.1338510955249865,9.837745903354037,-0.0032788259500759237,0.00981536357109982,0.0,12.540721721715757,33.7580983609635,-77.25
1772056141.270395,30.654867560801314,0.6909038811152242,-7.212786140648746,-0.22515675496748466,-1.1338510955249865,9.837745903354037,-0.0032788259500759237,0.00981536357109982,0.0,12.540721721715757,33.7580983609635,-77.25
1772056141.2855396,30.632825787992026,0.6895074645486372,-7.212842900998429,-0.2800482739521874,-1.1426822884160341,9.8518803706913,-1.4076186085299053e-06,0.0021816611108916926,-0.02399827721492203,12.540721721715757,33.7580983609635,-77.25
1772056141.303008,30.633239200596094,0.6827738622100433,-7.214682158084757,-0.31657796665806287,-1.1485593486341379,9.827835583738707,0.0054618946795761455,-0.011995617063382983,-0.00545415391248228,12.540883022926623,33.508098412999665,-78.0625
1772056141.3318913,30.633239200596094,0.6827738622100433,-7.214682158084757,-0.31657796665806287,-1.1485593486341379,9.827835583738707,0.0054618946795761455,-0.011995617063382983,-0.00545415391248228,12.540883022926623,33.508098412999665,-78.0625
1772056141.36772,30.655280921961115,0.6841705611695762,-7.214626707546824,-0.3140969650501434,-1.199284754454749,9.811834046619627,-0.0076379253160337186,0.0032675650012076846,0.011999138607461015,12.540883022926623,33.508098412999665,-78.0625
1772056141.3912196,30.655280921961115,0.6841705611695762,-7.214626707546824,-0.3140969650501434,-1.199284754454749,9.811834046619627,-0.0076379253160337186,0.0032675650012076846,0.011999138607461015,12.540883022926623,33.508098412999665,-78.0625
1772056141.429535,30.63997316244876,0.6831873371389237,-7.214525902491616,-0.20208743878181032,-1.1861391679186324,9.79784009070844,-2.8152372170598107e-06,0.004363322221783385,-0.017453292519943295,12.978221630652465,33.758380638082514,-77.6875
1772056141.4576638,30.646450138202237,0.6884941036876421,-7.205795923787955,-0.18441323746651495,-1.1774276177233536,9.788527269372276,4.222855825589716e-06,-0.006544983332675078,0.001090830782496456,12.978221630652465,33.758380638082514,-77.6875
1772056141.4746358,30.646450138202237,0.6884941036876421,-7.205795923787955,-0.18441323746651495,-1.1774276177233536,9.788527269372276,4.222855825589716e-06,-0.006544983332675078,0.001090830782496456,12.978221630652465,33.758380638082514,-77.6875
1772056141.4973238,30.646706909219702,0.683600780391295,-7.214369603319756,-0.15258058785863762,-1.1716172286891344,9.765604132267493,-7.038093042649527e-07,0.0010908305554458463,0.004363323129985824,12.167818715511261,30.507857085617367,-78.5
1772056141.523822,30.661858055920824,0.6864247905134215,-7.221203841506541,-0.15146482292262883,-1.1711085403978652,9.763729487421758,0.006550613807109198,-0.008722421587741181,0.009817477042468103,12.167818715511261,30.507857085617367,-78.5
1772056141.5381906,30.661601273807506,0.6913170887699253,-7.212629357836537,-0.15072013553935046,-1.1741151250334982,9.762481932218076,0.0076351100788166594,0.0010957572205757009,-0.002181661564992912,12.167818715511261,30.507857085617367,-78.5
1772056141.5517163,30.661601273807506,0.6913170887699253,-7.212629357836537,-0.15072013553935046,-1.1741151250334982,9.762481932218076,0.0076351100788166594,0.0010957572205757009,-0.002181661564992912,12.167818715511261,30.507857085617367,-78.5
1772056141.5771153,30.661757970772605,0.689476296595844,-7.205895730677455,-0.15022455440448185,-1.176115973522761,9.76165169816613,0.012001951347121368,-0.004355580319436471,0.002181661564992912,11.479109099529227,32.382413117016235,-78.5
1772056141.606551,30.67496908548916,0.6951931205054811,-7.197007543682215,-0.13316919563996968,-1.1774367244300459,9.724302957898368,0.006542871904762284,0.0032767145221631287,0.008726646259971648,11.479109099529227,32.382413117016235,-78.5
1772056141.6407647,30.68170227133529,0.6956052879210279,-7.196850696196886,-0.12181688662075221,-1.1816607804161419,9.699447788462939,0.005455560395837761,-0.0021781420643703676,0.0,12.978584558376912,33.19588075516389,-78.0625
1772056141.665927,30.68170227133529,0.6956052879210279,-7.196850696196886,-0.11425773521751297,-1.191162064511196,9.71301295621997,0.003274603094250334,-0.003270380238424744,0.004363323129985824,12.978584558376912,33.19588075516389,-78.0625
1772056141.7086911,30.681447323329344,0.7004960222234555,-7.188275562071195,-0.14267831451043347,-1.1975066457629118,9.73207575895138,0.003273899284946069,-0.0021795496829788976,0.002181661564992912,11.728383192044165,33.50757418406435,-78.0625
1772056141.763554,30.681447323329344,0.7004960222234555,-7.188275562071195,-0.12814078244067703,-1.2017073108895573,9.744761841223674,0.0010887191275330515,0.003273195475641804,0.004363323129985824,11.728383192044165,33.50757418406435,-78.0625
1772056141.7985384,30.681447323329344,0.7004960222234555,-7.188275562071195,-0.12814078244067703,-1.2017073108895573,9.744761841223674,0.0010887191275330515,0.003273195475641804,0.004363323129985824,11.728383192044165,33.50757418406435,-78.0625
1772056141.8297668,30.681447323329344,0.7004960222234555,-7.188275562071195,-0.12180916997190468,-1.2078500759001634,9.7598945106777,0.0,0.0,-0.002181661564992912,12.16660895642977,32.38285669534611,-78.0625
1772056141.8583837,30.681447323329344,0.7004960222234555,-7.188275562071195,-0.12180916997190468,-1.2078500759001634,9.7598945106777,0.0,0.0,-0.002181661564992912,12.16660895642977,32.38285669534611,-78.0625
1772056141.8799183,30.681447323329344,0.7004960222234555,-7.188275562071195,-0.11759555260268229,-1.2119380173955405,9.769965133156362,0.0010894229368373163,0.0021823649201959576,0.001090830782496456,12.16660895642977,32.38285669534611,-78.0625
1772056141.9192648,30.681447323329344,0.7004960222234555,-7.188275562071195,-0.11479575387720586,-1.207968274773311,9.776667019919685,7.038093042649527e-07,-0.0010908305554458463,-0.001090830782496456,11.728867095676762,32.75757434017285,-76.875
1772056141.9401526,30.681447323329344,0.7004960222234555,-7.188275562071195,-0.11479575387720586,-1.207968274773311,9.776667019919685,7.038093042649527e-07,-0.0010908305554458463,-0.001090830782496456,11.728867095676762,32.75757434017285,-76.875
1772056141.9662507,30.681447323329344,0.7004960222234555,-7.188275562071195,-0.12631296314541127,-1.20533508853225,9.777781938988378,0.0010908305554458463,7.038093042649527e-07,0.001090830782496456,11.728867095676762,32.75757434017285,-76.875
1772056141.9943552,30.681447323329344,0.7004960222234555,-7.188275562071195,-0.12631296314541127,-1.20533508853225,9.777781938988378,0.0010908305554458463,7.038093042649527e-07,0.001090830782496456,11.728867095676762,32.75757434017285,-76.875
1772056142.021313,30.681447323329344,0.7004960222234555,-7.188275562071195,-0.12394220422458786,-1.203576257656615,9.77517879346681,7.038093042649527e-07,-0.0010908305554458463,-0.001090830782496456,11.47886714771293,32.757413038961985,-78.0625
1772056142.0391936,30.681035829146367,0.7072286832361042,-7.186433571142391,-0.13239982367904898,-1.2024122502031345,9.773446429201249,0.0,0.0,-0.001090830782496456,11.47886714771293,32.757413038961985,-78.0625
1772056142.052956,30.681035829146367,0.7072286832361042,-7.186433571142391,-0.13239982367904898,-1.2024122502031345,9.773446429201249,0.0,0.0,-0.001090830782496456,11.47886714771293,32.757413038961985,-78.0625
1772056142.0779963,30.681193104828807,0.7053868380584066,-7.1797003645758775,-0.1313402112083641,-1.1982881886700552,9.772293560134294,-7.038093042649527e-07,0.0010908305554458463,-0.002181661564992912,11.47886714771293,32.757413038961985,-78.0625
1772056142.1189003,30.681193104828807,0.7053868380584066,-7.1797003645758775,-0.1301657746681702,-1.1937172264622158,9.771015761320342,0.0010901267461415813,0.0010915343647501113,-0.001090830782496456,12.540721721715757,33.7580983609635,-77.25
1772056142.177054,30.681193104828807,0.7053868380584066,-7.1797003645758775,-0.12650836553653466,-1.1924995892179777,9.76733086610457,0.0,0.0,0.001090830782496456,12.540721721715757,33.7580983609635,-77.25
1772056142.2096372,30.681193104828807,0.7053868380584066,-7.1797003645758775,-0.12407440061536824,-1.1916892652338367,9.764878609501451,0.0010894229368373163,0.0021823649201959576,0.001090830782496456,12.165883100980874,33.507856461183366,-77.25
1772056142.2371461,30.681193104828807,0.7053868380584066,-7.1797003645758775,-0.12407440061536824,-1.1916892652338367,9.764878609501451,0.0010894229368373163,0.0021823649201959576,0.001090830782496456,12.165883100980874,33.507856461183366,-77.25
1772056142.2537067,30.681193104828807,0.7053868380584066,-7.1797003645758775,-0.12245246586722619,-1.194495114685355,9.773281995247535,-0.0010915343647501113,0.0010901267461415813,-0.001090830782496456,12.165883100980874,33.507856461183366,-77.25
1772056142.2674286,30.681193104828807,0.7053868380584066,-7.1797003645758775,-0.12245246586722619,-1.194495114685355,9.773281995247535,-0.0010915343647501113,0.0010901267461415813,-0.001090830782496456,12.165883100980874,33.507856461183366,-77.25
1772056142.2908025,30.681193104828807,0.7053868380584066,-7.1797003645758775,-0.12806330843264038,-1.1963666927164995,9.778874354589584,0.0,0.0,0.002181661564992912,12.165883100980874,33.507856461183366,-77.25
1772056142.3298733,30.681193104828807,0.7053868380584066,-7.1797003645758775,-0.13179726148270526,-1.1976122069893296,9.779250895553652,-0.0010922381740543763,0.0021809573015874276,0.0,12.54136692655922,32.758098569108164,-76.875
1772056142.3536355,30.681193104828807,0.7053868380584066,-7.1797003645758775,-0.13179726148270526,-1.1976122069893296,9.779250895553652,-0.0010922381740543763,0.0021809573015874276,0.0,12.54136692655922,32.758098569108164,-76.875
1772056142.368008,30.681193104828807,0.7053868380584066,-7.1797003645758775,-0.1376294348198626,-1.1950981300958152,9.779501479359,-7.038093042649527e-07,0.0010908305554458463,0.0,12.54136692655922,32.758098569108164,-76.875
1772056142.387289,30.681193104828807,0.7053868380584066,-7.1797003645758775,-0.1376294348198626,-1.1950981300958152,9.779501479359,-7.038093042649527e-07,0.0010908305554458463,0.0,12.54136692655922,32.758098569108164,-76.875
1772056142.4097905,30.681193104828807,0.7053868380584066,-7.1797003645758775,-0.1415106810260958,-1.1934250400072604,9.776323128374935,-7.038093042649527e-07,0.0010908305554458463,-0.001090830782496456,11.72910904749306,32.3825744182271,-77.25
1772056142.49048,30.681193104828807,0.7053868380584066,-7.1797003645758775,-0.13739906843332766,-1.1989975227005214,9.777553083006866,-1.4076186085299053e-06,0.0021816611108916926,0.001090830782496456,11.72910904749306,32.3825744182271,-77.25
1772056142.5420272,30.681193104828807,0.7053868380584066,-7.1797003645758775,-0.13466283618256253,-1.2027059476841764,9.781716715782244,-0.0010922381740543763,0.0021809573015874276,0.001090830782496456,12.166084727494455,33.19535652622857,-77.6875
1772056142.5652096,30.681193104828807,0.7053868380584066,-7.1797003645758775,-0.13466283618256253,-1.2027059476841764,9.781716715782244,-0.0010922381740543763,0.0021809573015874276,0.001090830782496456,12.166084727494455,33.19535652622857,-77.6875
1772056142.5968025,30.681193104828807,0.7053868380584066,-7.1797003645758775,-0.1295011097388941,-1.1984814827805974,9.784487566883431,1.4076186085299053e-06,-0.0021816611108916926,0.0,12.166084727494455,33.19535652622857,-77.6875
1772056142.6244843,30.681193104828807,0.7053868380584066,-7.1797003645758775,-0.12941114946194743,-1.195672306859906,9.779641313924197,-1.4076186085299053e-06,0.0021816611108916926,-0.002181661564992912,12.166084727494455,33.19535652622857,-78.0625
1772056142.6431835,30.681193104828807,0.7053868380584066,-7.1797003645758775,-0.12935128190256154,-1.1938028316652372,9.77641618671602,0.0,0.0,-0.001090830782496456,12.166084727494455,33.19535652622857,-78.0625
1772056142.683098,30.681193104828807,0.7053868380584066,-7.1797003645758775,-0.12930928242827922,-1.1959038278176435,9.77426990058601,-0.0010915343647501113,0.0010901267461415813,0.0,11.728383192044165,33.50757418406435,-77.6875
1772056142.7164824,30.681193104828807,0.7053868380584066,-7.1797003645758775,-0.12930928242827922,-1.1959038278176435,9.77426990058601,-0.0010915343647501113,0.0010901267461415813,0.0,11.728383192044165,33.50757418406435,-77.6875
1772056142.738131,30.681193104828807,0.7053868380584066,-7.1797003645758775,-0.13262860154063688,-1.1939590645586282,9.779531794556714,-1.4076186085299053e-06,0.0021816611108916926,-0.002181661564992912,11.728383192044165,33.50757418406435,-77.6875
1772056142.7519455,30.681193104828807,0.7053868380584066,-7.1797003645758775,-0.13262860154063688,-1.1939590645586282,9.779531794556714,-1.4076186085299053e-06,0.0021816611108916926,-0.002181661564992912,11.728383192044165,33.50757418406435,-77.6875
1772056142.7833462,30.681193104828807,0.7053868380584066,-7.1797003645758775,-0.1314924603196347,-1.1926626880519073,9.78303352621501,-0.0010908305554458463,-7.038093042649527e-07,-0.003272492347489368,11.727939613714284,34.19507404096489,-77.6875
1772056142.803737,30.681193104828807,0.7053868380584066,-7.1797003645758775,-0.1314924603196347,-1.1926626880519073,9.78303352621501,-0.0010908305554458463,-7.038093042649527e-07,-0.003272492347489368,11.727939613714284,34.19507404096489,-77.6875
1772056142.8218217,30.681193104828807,0.7053868380584066,-7.1797003645758775,-0.134081482039639,-1.1918021222504345,9.782018777809382,-0.0010908305554458463,-7.038093042649527e-07,-0.001090830782496456,11.727939613714284,34.19507404096489,-77.6875
1772056142.8404832,30.681193104828807,0.7053868380584066,-7.1797003645758775,-0.134081482039639,-1.1918021222504345,9.782018777809382,-0.0010908305554458463,-7.038093042649527e-07,-0.001090830782496456,11.727939613714284,34.19507404096489,-77.6875
1772056142.8591332,30.681193104828807,0.7053868380584066,-7.1797003645758775,-0.12576695575760208,-1.1945680614869298,9.781343474080918,0.0,0.0,0.0,12.165721799770008,33.7578564091472,-76.5
1772056142.8797097,30.681193104828807,0.7053868380584066,-7.1797003645758775,-0.13026906442940744,-1.1964152379980784,9.780894066993262,0.0010908305554458463,7.038093042649527e-07,0.002181661564992912,12.165721799770008,33.7578564091472,-76.5
1772056142.896995,30.681193104828807,0.7053868380584066,-7.1797003645758775,-0.13026906442940744,-1.1964152379980784,9.780894066993262,0.0010908305554458463,7.038093042649527e-07,0.002181661564992912,12.165721799770008,33.7578564091472,-76.5
1772056142.9420156,30.681193104828807,0.7053868380584066,-7.1797003645758775,-0.1332651674586448,-1.197644513331934,9.780594991596633,0.0,0.0,0.0,12.978584558376912,33.19588075516389,-76.5
1772056142.9645338,30.681193104828807,0.7053868380584066,-7.1797003645758775,-0.1332651674586448,-1.197644513331934,9.780594991596633,0.0,0.0,0.0,12.978584558376912,33.19588075516389,-76.5
1772056142.9799647,5.82111205293867,-12.692297434566726,126.53540882835837,-0.135256882273663,-1.2018076933457618,9.780395960261068,0.0,0.0,-0.001090830782496456,12.978584558376912,33.19588075516389,-76.5
1772056142.9974887,5.82111205293867,-12.692297434566726,126.53540882835837,-0.135256882273663,-1.2018076933457618,9.780395960261068,0.0,0.0,-0.001090830782496456,12.978584558376912,33.19588075516389,-76.5
1772056143.027837,30.681193104828807,0.7053868380584066,-7.1797003645758775,-0.12989428249431634,-1.201228815563593,9.780263507130574,-0.0010915343647501113,0.0010901267461415813,-0.001090830782496456,12.541084649440204,33.19559847804487,-77.25
1772056143.0455992,30.681193104828807,0.7053868380584066,-7.1797003645758775,-0.12989428249431634,-1.201228815563593,9.780263507130574,-0.0010915343647501113,0.0010901267461415813,-0.001090830782496456,12.541084649440204,33.19559847804487,-77.25
1772056143.0790002,30.681193104828807,0.7053868380584066,-7.1797003645758775,-0.12632553224532572,-1.2008435788660485,9.77683024934451,-0.0010922381740543763,0.0021809573015874276,0.001090830782496456,12.541084649440204,33.19559847804487,-77.25
1772056143.1045732,30.681193104828807,0.7053868380584066,-7.1797003645758775,-0.12632553224532572,-1.2008435788660485,9.77683024934451,-0.0010922381740543763,0.0021809573015874276,0.001090830782496456,12.541084649440204,33.19559847804487,-77.25
1772056143.1325386,30.681193104828807,0.7053868380584066,-7.1797003645758775,-0.1272956798312271,-1.200589366429484,9.774545454639886,-0.0010901267461415813,-0.0010915343647501113,-0.001090830782496456,13.666608644212769,32.38382450261131,-76.5
1772056143.1478758,30.681193104828807,0.7053868380584066,-7.1797003645758775,-0.1272956798312271,-1.200589366429484,9.774545454639886,-0.0010901267461415813,-0.0010915343647501113,-0.001090830782496456,13.666608644212769,32.38382450261131,-76.5
1772056143.1722293,30.681193104828807,0.7053868380584066,-7.1797003645758775,-0.1312864132234381,-1.2004223491749646,9.773024949286789,0.0010894229368373163,0.0021823649201959576,-0.001090830782496456,13.666608644212769,32.38382450261131,-76.5
1772056143.1939702,30.681193104828807,0.7053868380584066,-7.1797003645758775,-0.13394004343426605,-1.2036563120688393,9.77535818166678,0.0,0.0,0.0,12.979350739128524,32.00838100233568,-77.25
1772056143.23608,30.681193104828807,0.7053868380584066,-7.1797003645758775,-0.13394004343426605,-1.2036563120688393,9.77535818166678,0.0,0.0,0.0,12.979350739128524,32.00838100233568,-77.25
1772056143.2607443,30.681193104828807,0.7053868380584066,-7.1797003645758775,-0.13571032126113128,-1.1991182562268756,9.77691092175175,0.0010922381740543763,-0.0021809573015874276,0.002181661564992912,12.979350739128524,32.00838100233568,-77.25
1772056143.3129854,30.681193104828807,0.7053868380584066,-7.1797003645758775,-0.13353899380400783,-1.2027862944972831,9.774599141225735,1.4076186085299053e-06,-0.0021816611108916926,0.001090830782496456,13.666608644212769,32.38382450261131,-77.6875
1772056143.3484821,30.681193104828807,0.7053868380584066,-7.1797003645758775,-0.13209399963660914,-1.205227332991567,9.773060677109953,0.0,0.0,-0.001090830782496456,13.666608644212769,32.38382450261131,-77.6875
1772056143.3702185,30.681193104828807,0.7053868380584066,-7.1797003645758775,-0.13209399963660914,-1.205227332991567,9.773060677109953,0.0,0.0,-0.001090830782496456,13.666608644212769,32.38382450261131,-77.6875
1772056143.3950393,30.681193104828807,0.7053868380584066,-7.1797003645758775,-0.13209399963660914,-1.205227332991567,9.773060677109953,0.0,0.0,-0.001090830782496456,13.666608644212769,32.38382450261131,-77.6875
1772056143.4691968,30.681193104828807,0.7053868380584066,-7.1797003645758775,-0.1304924198161459,-1.2079328926966677,9.774700610251204,1.4076186085299053e-06,-0.0021816611108916926,0.001090830782496456,12.166084727494455,33.19535652622857,-77.25
1772056143.4962437,30.681193104828807,0.7053868380584066,-7.1797003645758775,-0.1300665386801484,-1.2086523366019888,9.776473315320239,7.038093042649527e-07,-0.0010908305554458463,-0.001090830782496456,12.16660895642977,32.38285669534611,-76.875
1772056143.5630333,30.681193104828807,0.7053868380584066,-7.1797003645758775,-0.12978311954154606,-1.209131118484265,9.774307919033948,0.0,0.0,0.0,12.16660895642977,32.38285669534611,-76.875
1772056143.6045284,30.681193104828807,0.7053868380584066,-7.1797003645758775,-0.13293961828185763,-1.209451900760851,9.772866871994484,-0.0010915343647501113,0.0010901267461415813,0.003272492347489368,11.728867095676762,32.75757434017285,-77.25
1772056143.697822,30.681193104828807,0.7053868380584066,-7.1797003645758775,-0.1316951219220815,-1.209663219500271,9.77190787128727,0.0,0.0,0.0,11.728867095676762,32.75757434017285,-77.25
1772056143.7152944,30.681193104828807,0.7053868380584066,-7.1797003645758775,-0.1316951219220815,-1.209663219500271,9.77190787128727,0.0,0.0,0.0,11.728867095676762,32.75757434017285,-77.25
1772056143.7560606,30.681193104828807,0.7053868380584066,-7.1797003645758775,-0.13588701171756992,-1.209901032223209,9.776416195406123,-0.0010915343647501113,0.0010901267461415813,0.0,12.54136692655922,32.758098569108164,-76.75
1772056143.8050063,30.681193104828807,0.7053868380584066,-7.1797003645758775,-0.13588701171756992,-1.209901032223209,9.776416195406123,-0.0010915343647501113,0.0010901267461415813,0.0,12.54136692655922,32.758098569108164,-76.75
1772056143.8614862,30.681193104828807,0.7053868380584066,-7.1797003645758775,-0.13700169034005827,-1.2099642697536184,9.777615018076494,0.0010908305554458463,7.038093042649527e-07,0.0,11.728584818557746,33.19507424910956,-78.0625
1772056143.9200242,30.681193104828807,0.7053868380584066,-7.1797003645758775,-0.13774565479382364,-1.206661242612644,9.775067709464581,-0.0010901267461415813,-0.0010915343647501113,-0.001090830782496456,11.728584818557746,33.19507424910956,-78.0625
1772056143.9401078,30.681193104828807,0.7053868380584066,-7.1797003645758775,-0.1348956438161248,-1.2044609566652809,9.770027392331336,-0.0010908305554458463,-7.038093042649527e-07,-0.001090830782496456,12.978382931863331,33.50838069011868,-77.25
1772056143.9655907,30.681193104828807,0.7053868380584066,-7.1797003645758775,-0.1348956438161248,-1.2044609566652809,9.770027392331336,-0.0010908305554458463,-7.038093042649527e-07,-0.001090830782496456,12.978382931863331,33.50838069011868,-77.25
1772056143.9844596,30.681193104828807,0.7053868380584066,-7.1797003645758775,-0.1348956438161248,-1.2044609566652809,9.770027392331336,-0.0010908305554458463,-7.038093042649527e-07,-0.001090830782496456,12.978382931863331,33.50838069011868,-77.25
1772056144.0110807,30.681193104828807,0.7053868380584066,-7.1797003645758775,-0.13299899334717483,-1.2029966909461152,9.766673117583192,0.0,0.0,-0.001090830782496456,12.978382931863331,33.50838069011868,-77.25
1772056144.0650194,30.681193104828807,0.7053868380584066,-7.1797003645758775,-0.12839168263601042,-1.202020080184655,9.767785996915325,-7.038093042649527e-07,0.0010908305554458463,0.0,12.541084649440204,33.19559847804487,-76.75
1772056144.0932379,30.681193104828807,0.7053868380584066,-7.1797003645758775,-0.12839168263601042,-1.202020080184655,9.767785996915325,-7.038093042649527e-07,0.0010908305554458463,0.0,12.541084649440204,33.19559847804487,-76.75
1772056144.1247447,30.681193104828807,0.7053868380584066,-7.1797003645758775,-0.1286706798358156,-1.2013723149146354,9.768526605679185,-0.0010908305554458463,-7.038093042649527e-07,0.001090830782496456,12.541084649440204,33.19559847804487,-76.75
1772056144.1399224,30.681193104828807,0.7053868380584066,-7.1797003645758775,-0.1286706798358156,-1.2013723149146354,9.768526605679185,-0.0010908305554458463,-7.038093042649527e-07,0.001090830782496456,12.541084649440204,33.19559847804487,-76.75
1772056144.1705847,30.681193104828807,0.7053868380584066,-7.1797003645758775,-0.12885634935568302,-1.2009412343634498,9.76901947253839,0.0,0.0,0.001090830782496456,12.166850908246067,32.00785677340037,-76.875
1772056144.2056198,30.681193104828807,0.7053868380584066,-7.1797003645758775,-0.1323271796404181,-1.1973114023433442,9.769347469927508,7.038093042649527e-07,-0.0010908305554458463,0.0,12.166850908246067,32.00785677340037,-76.875
1772056144.2439485,30.681193104828807,0.7053868380584066,-7.1797003645758775,-0.1323271796404181,-1.1973114023433442,9.769347469927508,7.038093042649527e-07,-0.0010908305554458463,0.0,12.166850908246067,32.00785677340037,-76.875
1772056144.2786343,30.681193104828807,0.7053868380584066,-7.1797003645758775,-0.13128970912986684,-1.1982387424106211,9.769565748525995,0.0,0.0,0.0,12.16660895642977,32.38285669534611,-76.5
1772056144.296007,30.681193104828807,0.7053868380584066,-7.1797003645758775,-0.13394439510545217,-1.198858035148602,9.769711010494957,-0.0010908305554458463,-7.038093042649527e-07,0.0,12.16660895642977,32.38285669534611,-76.5
1772056144.3436315,30.681193104828807,0.7053868380584066,-7.1797003645758775,-0.1323637896740911,-1.202613120276552,9.773152792419937,-7.038093042649527e-07,0.0010908305554458463,0.0,12.165883100980874,33.507856461183366,-78.5
1772056144.3862047,30.681193104828807,0.7053868380584066,-7.1797003645758775,-0.13131191441603987,-1.2051120874821535,9.775443259843788,0.0,0.0,0.0,12.165883100980874,33.507856461183366,-78.5
1772056144.431014,30.681193104828807,0.7053868380584066,-7.1797003645758775,-0.13131191441603987,-1.2051120874821535,9.775443259843788,0.0,0.0,0.0,12.165883100980874,33.507856461183366,-78.5
1772056144.4555433,30.681193104828807,0.7053868380584066,-7.1797003645758775,-0.13131191441603987,-1.2051120874821535,9.775443259843788,0.0,0.0,0.0,12.165883100980874,33.507856461183366,-78.5
1772056144.4786732,30.681193104828807,0.7053868380584066,-7.1797003645758775,-0.13060974489974786,-1.2101202332532406,9.770277316913525,0.0,0.0,0.001090830782496456,12.978866835495928,32.75838084622718,-77.25
1772056144.4971068,30.681193104828807,0.7053868380584066,-7.1797003645758775,-0.13060974489974786,-1.2101202332532406,9.770277316913525,0.0,0.0,0.001090830782496456,12.978866835495928,32.75838084622718,-77.25
1772056144.5309734,30.681193104828807,0.7053868380584066,-7.1797003645758775,-0.1267973479193507,-1.2134509400369695,9.766839439600798,-0.0010894229368373163,-0.0021823649201959576,0.002181661564992912,12.978866835495928,32.75838084622718,-77.25
1772056144.556291,30.681193104828807,0.7053868380584066,-7.1797003645758775,-0.12426239859843663,-1.2123223771840566,9.764551570652785,0.0010908305554458463,7.038093042649527e-07,0.001090830782496456,12.166850908246067,32.00785677340037,-76.5
1772056144.5829825,30.681193104828807,0.7053868380584066,-7.1797003645758775,-0.12257541814260763,-1.211571331212316,9.763029019425053,0.0010894229368373163,0.0021823649201959576,0.0,12.166850908246067,32.00785677340037,-76.5
1772056144.643126,30.681193104828807,0.7053868380584066,-7.1797003645758775,-0.12257541814260763,-1.211571331212316,9.763029019425053,0.0010894229368373163,0.0021823649201959576,0.0,12.166850908246067,32.00785677340037,-76.5
1772056144.6829522,30.681193104828807,0.7053868380584066,-7.1797003645758775,-0.12814297351616433,-1.2110758350724067,9.765360890298329,0.0010908305554458463,7.038093042649527e-07,0.001090830782496456,12.165883100980874,33.507856461183366,-77.6875
1772056144.7300267,30.681193104828807,0.7053868380584066,-7.1797003645758775,-0.13185027770587318,-1.2074009769152994,9.770257836023108,0.0,0.0,0.0,12.165883100980874,33.507856461183366,-77.6875
1772056144.7742584,30.681193104828807,0.7053868380584066,-7.1797003645758775,-0.13185027770587318,-1.2074009769152994,9.770257836023108,0.0,0.0,0.0,12.165883100980874,33.507856461183366,-77.6875
1772056144.803661,30.681193104828807,0.7053868380584066,-7.1797003645758775,-0.1343174472308231,-1.2049553998626,9.770171586993161,0.0,0.0,0.0,12.16660895642977,32.38285669534611,-77.25
1772056144.8294566,30.681193104828807,0.7053868380584066,-7.1797003645758775,-0.1343174472308231,-1.2049553998626,9.770171586993161,0.0,0.0,0.0,12.16660895642977,32.38285669534611,-77.25
1772056144.8724084,30.681193104828807,0.7053868380584066,-7.1797003645758775,-0.13595932098958788,-1.203327895652914,9.773459300934515,-0.0010908305554458463,-7.038093042649527e-07,0.001090830782496456,12.16660895642977,32.38285669534611,-77.25
1772056144.8912535,30.681193104828807,0.7053868380584066,-7.1797003645758775,-0.13595932098958788,-1.203327895652914,9.773459300934515,-0.0010908305554458463,-7.038093042649527e-07,0.001090830782496456,12.16660895642977,32.38285669534611,-77.25
1772056144.9231877,30.681193104828807,0.7053868380584066,-7.1797003645758775,-0.13370470034178647,-1.2055877625105582,9.772302126128997,0.0,0.0,0.0,12.541608878375518,32.38309864716241,-77.25
1772056144.942988,30.681193104828807,0.7053868380584066,-7.1797003645758775,-0.13554938649748977,-1.207093836942229,9.771532039222413,0.0010901267461415813,0.0010915343647501113,0.001090830782496456,12.541608878375518,32.38309864716241,-77.25
1772056144.9615011,30.681193104828807,0.7053868380584066,-7.1797003645758775,-0.13554938649748977,-1.207093836942229,9.771532039222413,0.0010901267461415813,0.0010915343647501113,0.001090830782496456,12.541608878375518,32.38309864716241,-77.25
1772056144.9829137,30.681193104828807,0.7053868380584066,-7.1797003645758775,-0.13009109907006222,-1.2014015740658968,9.771019554988516,7.038093042649527e-07,-0.0010908305554458463,0.0,12.978584558376912,33.19588075516389,-77.5625
1772056145.004345,30.681193104828807,0.7053868380584066,-7.1797003645758775,-0.13009109907006222,-1.2014015740658968,9.771019554988516,7.038093042649527e-07,-0.0010908305554458463,0.0,12.978584558376912,33.19588075516389,-77.5625
1772056145.0300581,30.681193104828807,0.7053868380584066,-7.1797003645758775,-0.12980378077122715,-1.1976155949907157,9.770678502455683,-7.038093042649527e-07,0.0010908305554458463,0.002181661564992912,12.978584558376912,33.19588075516389,-77.5625
1772056145.0448632,30.681193104828807,0.7053868380584066,-7.1797003645758775,-0.12961041537063264,-1.1984411792193925,9.770451535804888,-0.0010915343647501113,0.0010901267461415813,0.0,12.978866835495928,32.75838084622718,-75.5625
1772056145.0596323,30.681193104828807,0.7053868380584066,-7.1797003645758775,-0.12961041537063264,-1.1984411792193925,9.770451535804888,-0.0010915343647501113,0.0010901267461415813,0.0,12.978866835495928,32.75838084622718,-75.5625
1772056145.0790005,30.681193104828807,0.7053868380584066,-7.1797003645758775,-0.12948173285657,-1.1989905963011969,9.773645603741487,0.0010901267461415813,0.0010915343647501113,-0.002181661564992912,12.978866835495928,32.75838084622718,-75.5625
1772056145.104506,30.681193104828807,0.7053868380584066,-7.1797003645758775,-0.13274120709199141,-1.199358385514022,9.772426108565897,0.0,0.0,0.0,13.665882788763874,33.50882426844856,-76.875
1772056145.1279974,30.681193104828807,0.7053868380584066,-7.1797003645758775,-0.13156308149162374,-1.2029460978554591,9.771614548149197,0.0,0.0,-0.001090830782496456,13.665882788763874,33.50882426844856,-76.875
1772056145.156224,30.681193104828807,0.7053868380584066,-7.1797003645758775,-0.1307790520651043,-1.2053336803413128,9.771074463757605,-0.0021816611108916926,-1.4076186085299053e-06,0.0,13.665882788763874,33.50882426844856,-76.875
1772056145.171805,30.681193104828807,0.7053868380584066,-7.1797003645758775,-0.13025728923993818,-1.2069225898146045,9.77071504362814,7.038093042649527e-07,-0.0010908305554458463,0.0,11.47886714771293,32.757413038961985,-77.25
1772056145.1993928,30.681193104828807,0.7053868380584066,-7.1797003645758775,-0.12991222019053825,-1.204634880308746,9.770475853546966,7.038093042649527e-07,-0.0010908305554458463,0.0,11.47886714771293,32.757413038961985,-77.25
1772056145.217969,30.681193104828807,0.7053868380584066,-7.1797003645758775,-0.12991222019053825,-1.204634880308746,9.770475853546966,7.038093042649527e-07,-0.0010908305554458463,0.0,11.47886714771293,32.757413038961985,-77.25
1772056145.237012,30.681193104828807,0.7053868380584066,-7.1797003645758775,-0.12633746958178427,-1.2031102769057114,9.770316675219874,7.038093042649527e-07,-0.0010908305554458463,0.001090830782496456,11.47886714771293,32.757413038961985,-77.25
1772056145.2619107,30.681193104828807,0.7053868380584066,-7.1797003645758775,-0.12395635470196377,-1.2054407813829802,9.770210743821332,1.4076186085299053e-06,-0.0021816611108916926,0.0,12.54136692655922,32.758098569108164,-77.6875
1772056145.28522,30.681193104828807,0.7053868380584066,-7.1797003645758775,-0.12571686035929147,-1.206993864361437,9.770140247658933,-0.0010908305554458463,-7.038093042649527e-07,-0.001090830782496456,12.54136692655922,32.758098569108164,-77.6875
1772056145.316998,30.681193104828807,0.7053868380584066,-7.1797003645758775,-0.13023356821915855,-1.208029582016802,9.76674822154303,-1.4076186085299053e-06,0.0021816611108916926,-0.003272492347489368,12.54136692655922,32.758098569108164,-77.6875
1772056145.3313751,30.681193104828807,0.7053868380584066,-7.1797003645758775,-0.13023356821915855,-1.208029582016802,9.76674822154303,-1.4076186085299053e-06,0.0021816611108916926,-0.003272492347489368,12.54136692655922,32.758098569108164,-77.6875
1772056145.3529234,30.681193104828807,0.7053868380584066,-7.1797003645758775,-0.13324154512724284,-1.2053737295356708,9.764490866054313,-0.0010880153182287865,-0.00436402603108765,0.001090830782496456,12.54136692655922,32.758098569108164,-76.5
1772056145.3697078,30.681193104828807,0.7053868380584066,-7.1797003645758775,-0.13524547844054466,-1.2002611783662418,9.769678844607522,1.4076186085299053e-06,-0.0021816611108916926,0.0,12.54136692655922,32.758098569108164,-76.5
1772056145.4046474,30.681193104828807,0.7053868380584066,-7.1797003645758775,-0.13524547844054466,-1.2002611783662418,9.769678844607522,1.4076186085299053e-06,-0.0021816611108916926,0.0,12.54136692655922,32.758098569108164,-76.5
1772056145.4373937,30.681193104828807,0.7053868380584066,-7.1797003645758775,-0.13657907367514519,-1.1968588326739256,9.773131386381166,1.4076186085299053e-06,-0.0021816611108916926,0.001090830782496456,12.978866835495928,32.75838084622718,-76.75
1772056145.461401,30.681193104828807,0.7053868380584066,-7.1797003645758775,-0.13746656640653696,-1.194594609622381,9.775429014364107,-0.0010908305554458463,-7.038093042649527e-07,-0.002181661564992912,12.978866835495928,32.75838084622718,-76.75
1772056145.4858916,30.681193104828807,0.7053868380584066,-7.1797003645758775,-0.1380550246230593,-1.1964329054856588,9.776958060120569,0.0,0.0,-0.001090830782496456,12.540883022926623,33.508098412999665,-77.6875
1772056145.5104897,30.681193104828807,0.7053868380584066,-7.1797003645758775,-0.1380550246230593,-1.1964329054856588,9.776958060120569,0.0,0.0,-0.001090830782496456,12.540883022926623,33.508098412999665,-77.6875
1772056145.533274,30.681193104828807,0.7053868380584066,-7.1797003645758775,-0.13175641497054144,-1.197651954283009,9.784665846405572,-0.0010908305554458463,-7.038093042649527e-07,0.0,12.540883022926623,33.508098412999665,-77.6875
1772056145.5542874,30.681193104828807,0.7053868380584066,-7.1797003645758775,-0.12756476060687083,-1.198463217639978,9.779759956954669,-0.0021816611108916926,-1.4076186085299053e-06,0.0,12.166084727494455,33.19535652622857,-77.25
1772056145.5849469,30.681193104828807,0.7053868380584066,-7.1797003645758775,-0.12756476060687083,-1.198463217639978,9.779759956954669,-0.0021816611108916926,-1.4076186085299053e-06,0.0,12.166084727494455,33.19535652622857,-77.25
1772056145.6176467,30.681193104828807,0.7053868380584066,-7.1797003645758775,-0.12477310316941984,-1.2023482153526879,9.77649514232747,-1.4076186085299053e-06,0.0021816611108916926,0.001090830782496456,12.166084727494455,33.19535652622857,-77.25
1772056145.6357014,30.681193104828807,0.7053868380584066,-7.1797003645758775,-0.1262603973407053,-1.2049357962145038,9.774322444663436,7.038093042649527e-07,-0.0010908305554458463,-0.001090830782496456,12.165883100980874,33.507856461183366,-77.25
1772056145.6500695,30.681193104828807,0.7053868380584066,-7.1797003645758775,-0.1262603973407053,-1.2049357962145038,9.774322444663436,7.038093042649527e-07,-0.0010908305554458463,-0.001090830782496456,12.165883100980874,33.507856461183366,-77.25
1772056145.6646523,30.681193104828807,0.7053868380584066,-7.1797003645758775,-0.1272501749975313,-1.20665780237287,9.772876538638647,-0.0010915343647501113,0.0010901267461415813,0.0,12.165883100980874,33.507856461183366,-77.25
1772056145.6936862,30.681193104828807,0.7053868380584066,-7.1797003645758775,-0.1279110192538836,-1.2044586672241415,9.768569192623659,-1.4076186085299053e-06,0.0021816611108916926,-0.002181661564992912,11.728867095676762,32.75757434017285,-76.875
1772056145.7354486,30.681193104828807,0.7053868380584066,-7.1797003645758775,-0.12835080372437202,-1.202995167348612,9.765702701966891,0.0,0.0,-0.001090830782496456,11.728867095676762,32.75757434017285,-76.875
1772056145.771674,30.681193104828807,0.7053868380584066,-7.1797003645758775,-0.12835080372437202,-1.202995167348612,9.765702701966891,0.0,0.0,-0.001090830782496456,11.728867095676762,32.75757434017285,-76.875
1772056145.788398,30.681193104828807,0.7053868380584066,-7.1797003645758775,-0.12835080372437202,-1.202995167348612,9.765702701966891,0.0,0.0,-0.001090830782496456,11.728867095676762,32.75757434017285,-76.875
1772056145.8379772,30.681193104828807,0.7053868380584066,-7.1797003645758775,-0.13198858638781985,-1.202023382812087,9.76714019616293,2.111427912794858e-06,-0.003272491666337539,-0.001090830782496456,12.978584558376912,33.19588075516389,-77.5625
1772056145.8549688,30.681193104828807,0.7053868380584066,-7.1797003645758775,-0.13106437910259716,-1.201374512776299,9.768096832492532,0.001092941983358641,-0.003271787857033274,0.001090830782496456,12.978584558376912,33.19588075516389,-77.5625
1772056145.8702774,30.681193104828807,0.7053868380584066,-7.1797003645758775,-0.13044932947835333,-1.2009426970158352,9.768733463283553,-0.003271084047729009,-0.0021837725388044876,0.0,12.978584558376912,33.19588075516389,-77.5625
1772056145.9099915,30.681193104828807,0.7053868380584066,-7.1797003645758775,-0.13004002082397353,-1.2006553284509445,9.769157133963347,-0.0021802534922831626,-0.0021830687295002226,-0.001090830782496456,11.47886714771293,32.757413038961985,-76.75
1772056145.9466348,30.681193104828807,0.7053868380584066,-7.1797003645758775,-0.12976763048676104,-1.200464087881127,9.769439082068038,-0.0010922381740543763,0.0021809573015874276,0.001090830782496456,11.47886714771293,32.757413038961985,-76.75
1772056146.0005598,30.681193104828807,0.7053868380584066,-7.1797003645758775,-0.12976763048676104,-1.200464087881127,9.769439082068038,-0.0010922381740543763,0.0021809573015874276,0.001090830782496456,11.47886714771293,32.757413038961985,-76.75
1772056146.0555694,30.681193104828807,0.7053868380584066,-7.1797003645758775,-0.12958635776014554,-1.2003368194182107,9.769626715382143,0.0010908305554458463,7.038093042649527e-07,0.001090830782496456,12.166367004613472,32.757856617291864,-78.0625
1772056146.0747926,30.681193104828807,0.7053868380584066,-7.1797003645758775,-0.12958635776014554,-1.2003368194182107,9.769626715382143,0.0010908305554458463,7.038093042649527e-07,0.001090830782496456,12.166367004613472,32.757856617291864,-78.0625
1772056146.1061294,30.681193104828807,0.7053868380584066,-7.1797003645758775,-0.12612277005675523,-1.196904854384494,9.769751583256678,-0.0010887191275330515,-0.003273195475641804,-0.002181661564992912,12.166367004613472,32.757856617291864,-78.0625
1772056146.1245704,30.681193104828807,0.7053868380584066,-7.1797003645758775,-0.12612277005675523,-1.196904854384494,9.769751583256678,-0.0010887191275330515,-0.003273195475641804,-0.002181661564992912,12.166367004613472,32.757856617291864,-78.0625
1772056146.1532106,30.681193104828807,0.7053868380584066,-7.1797003645758775,-0.12381563284868329,-1.1979660310031692,9.763144458017678,0.0010901267461415813,0.0010915343647501113,-0.001090830782496456,12.978584558376912,33.19588075516389,-77.25
1772056146.1859648,30.681193104828807,0.7053868380584066,-7.1797003645758775,-0.12381563284868329,-1.1979660310031692,9.763144458017678,0.0010901267461415813,0.0010915343647501113,-0.001090830782496456,12.978584558376912,33.19588075516389,-77.25
1772056146.2057068,30.681193104828807,0.7053868380584066,-7.1797003645758775,-0.12562536982017494,-1.1986743904710535,9.758747489977548,0.0021809573015874276,0.001092238174054376,0.002181661564992912,12.978584558376912,33.19588075516389,-77.25
1772056146.2204008,30.681193104828807,0.7053868380584066,-7.1797003645758775,-0.12562536982017494,-1.1986743904710535,9.758747489977548,0.0021809573015874276,0.001092238174054376,0.002181661564992912,12.978584558376912,33.19588075516389,-77.25
1772056146.2356002,30.681193104828807,0.7053868380584066,-7.1797003645758775,-0.12682757127634053,-1.2024909067950889,9.755821356864192,-0.0021809573015874276,-0.001092238174054376,0.0,12.541084649440204,33.19559847804487,-77.5625
1772056146.2484972,30.681193104828807,0.7053868380584066,-7.1797003645758775,-0.12762762291594856,-1.2050307557754538,9.760564271378941,0.0010908305554458463,7.038093042649527e-07,0.001090830782496456,12.541084649440204,33.19559847804487,-77.5625
1772056146.270646,30.681193104828807,0.7053868380584066,-7.1797003645758775,-0.12762762291594856,-1.2050307557754538,9.760564271378941,0.0010908305554458463,7.038093042649527e-07,0.001090830782496456,12.541084649440204,33.19559847804487,-77.5625
1772056146.3102047,30.681193104828807,0.7053868380584066,-7.1797003645758775,-0.12481493733389307,-1.2067188386176388,9.76372062800668,0.0010894229368373163,0.0021823649201959576,-0.001090830782496456,12.541084649440204,33.19559847804487,-77.5625
1772056146.3419764,30.681193104828807,0.7053868380584066,-7.1797003645758775,-0.12963334852089625,-1.2078465554565432,9.765821148083628,-1.4076186085299053e-06,0.0021816611108916926,0.0,11.728867095676762,32.75757434017285,-75.5625
1772056146.3767705,30.681193104828807,0.7053868380584066,-7.1797003645758775,-0.12963334852089625,-1.2078465554565432,9.765821148083628,-1.4076186085299053e-06,0.0021816611108916926,0.0,11.728867095676762,32.75757434017285,-75.5625
1772056146.4039552,30.681193104828807,0.7053868380584066,-7.1797003645758775,-0.12949699461189038,-1.2052497691220838,9.767219020730488,-0.0010908305554458463,-7.038093042649527e-07,-0.002181661564992912,11.728867095676762,32.75757434017285,-75.5625
1772056146.4362392,30.681193104828807,0.7053868380584066,-7.1797003645758775,-0.12940625260861996,-1.2035216368245052,9.768149289361714,7.038093042649527e-07,-0.0010908305554458463,-0.001090830782496456,11.478383244080332,33.50741288285349,-76.5
1772056146.480324,30.681193104828807,0.7053868380584066,-7.1797003645758775,-0.12940625260861996,-1.2035216368245052,9.768149289361714,7.038093042649527e-07,-0.0010908305554458463,-0.001090830782496456,11.478383244080332,33.50741288285349,-76.5
1772056146.499049,30.681193104828807,0.7053868380584066,-7.1797003645758775,-0.12934802310137355,-1.199026473073917,9.775458596158652,0.0010908305554458463,7.038093042649527e-07,0.0,11.478383244080332,33.50741288285349,-76.5
1772056146.5142906,30.681193104828807,0.7053868380584066,-7.1797003645758775,-0.12934802310137355,-1.199026473073917,9.775458596158652,0.0010908305554458463,7.038093042649527e-07,0.0,11.478383244080332,33.50741288285349,-76.5
1772056146.5340953,30.681193104828807,0.7053868380584066,-7.1797003645758775,-0.1293092720147673,-1.1960349918121698,9.780322858181707,0.0010915343647501113,-0.0010901267461415813,-0.001090830782496456,12.16660895642977,32.38285669534611,-78.0625
1772056146.5737262,30.681193104828807,0.7053868380584066,-7.1797003645758775,-0.1292834835995088,-1.1940441944495122,9.783559970220683,-0.0021816611108916926,-1.4076186085299053e-06,0.001090830782496456,12.16660895642977,32.38285669534611,-78.0625
1772056146.5895584,30.681193104828807,0.7053868380584066,-7.1797003645758775,-0.1292834835995088,-1.1940441944495122,9.783559970220683,-0.0021816611108916926,-1.4076186085299053e-06,0.001090830782496456,12.16660895642977,32.38285669534611,-78.0625
1772056146.6201005,30.681193104828807,0.7053868380584066,-7.1797003645758775,-0.1292641634149543,-1.1960644520543795,9.78571423212171,-0.0010908305554458463,-7.038093042649527e-07,-0.001090830782496456,12.166084727494455,33.19535652622857,-77.25
1772056146.6462135,30.681193104828807,0.7053868380584066,-7.1797003645758775,-0.1292491477656784,-1.200754021933715,9.780457645937524,-0.0010901267461415813,-0.0010915343647501113,0.0,12.166084727494455,33.19535652622857,-77.25
1772056146.665677,30.681193104828807,0.7053868380584066,-7.1797003645758775,-0.1292491477656784,-1.200754021933715,9.780457645937524,-0.0010901267461415813,-0.0010915343647501113,0.0,12.166084727494455,33.19535652622857,-77.25
1772056146.6865087,30.681193104828807,0.7053868380584066,-7.1797003645758775,-0.1292491477656784,-1.200754021933715,9.780457645937524,-0.0010901267461415813,-0.0010915343647501113,0.0,12.166084727494455,33.19535652622857,-77.25
1772056146.71262,30.681193104828807,0.7053868380584066,-7.1797003645758775,-0.12923915501882102,-1.2038748783024844,9.780304558259182,0.0010894229368373163,0.0021823649201959576,-0.001090830782496456,12.541084649440204,33.19559847804487,-78.0625
1772056146.7408333,30.681193104828807,0.7053868380584066,-7.1797003645758775,-0.12923250495741379,-1.2059517733536507,9.773512456704708,-0.0010908305554458463,-7.038093042649527e-07,-0.001090830782496456,12.541084649440204,33.19559847804487,-78.0625
1772056146.7630794,30.681193104828807,0.7053868380584066,-7.1797003645758775,-0.12923250495741379,-1.2059517733536507,9.773512456704708,-0.0010908305554458463,-7.038093042649527e-07,-0.001090830782496456,12.541084649440204,33.19559847804487,-78.0625
1772056146.7932894,30.681193104828807,0.7053868380584066,-7.1797003645758775,-0.12922807941583334,-1.207333923809764,9.77233750070027,-7.038093042649527e-07,0.0010908305554458463,-0.002181661564992912,11.72910904749306,32.3825744182271,-76.5
1772056146.823137,30.681193104828807,0.7053868380584066,-7.1797003645758775,-0.12922807941583334,-1.207333923809764,9.77233750070027,-7.038093042649527e-07,0.0010908305554458463,-0.002181661564992912,11.72910904749306,32.3825744182271,-76.5
1772056146.8525867,30.681193104828807,0.7053868380584066,-7.1797003645758775,-0.1292229759850726,-1.2115988405097275,9.771555580604437,-0.0010908305554458463,-7.038093042649527e-07,0.0,11.72910904749306,32.3825744182271,-76.5
1772056146.8963084,30.681193104828807,0.7053868380584066,-7.1797003645758775,-0.12921957970891038,-1.214437094931312,9.771035221515278,0.0,0.0,0.0,12.166084727494455,33.19535652622857,-76.75
1772056146.94514,30.681193104828807,0.7053868380584066,-7.1797003645758775,-0.12922379437188972,-1.2062905885103403,9.767343816646916,-0.0010915343647501113,0.0010901267461415813,-0.001090830782496456,12.166084727494455,33.19535652622857,-76.75
1772056146.9731843,30.681193104828807,0.7053868380584066,-7.1797003645758775,-0.12922379437188972,-1.2062905885103403,9.767343816646916,-0.0010915343647501113,0.0010901267461415813,-0.001090830782496456,12.166084727494455,33.19535652622857,-76.75
1772056147.007413,30.681193104828807,0.7053868380584066,-7.1797003645758775,-0.12922659918302165,-1.2008691794896231,9.764887227942715,0.0021816611108916926,1.4076186085299053e-06,0.001090830782496456,12.978866835495928,32.75838084622718,-76.75
1772056147.0417194,30.681193104828807,0.7053868380584066,-7.1797003645758775,-0.12922846575349814,-1.197261292347443,9.766597507309283,-7.038093042649527e-07,0.0010908305554458463,0.0,12.978866835495928,32.75838084622718,-76.75
1772056147.0608377,30.681193104828807,0.7053868380584066,-7.1797003645758775,-0.12922846575349814,-1.197261292347443,9.766597507309283,-7.038093042649527e-07,0.0010908305554458463,0.0,12.978866835495928,32.75838084622718,-76.75
1772056147.0776377,30.681193104828807,0.7053868380584066,-7.1797003645758775,-0.12922846575349814,-1.197261292347443,9.766597507309283,-7.038093042649527e-07,0.0010908305554458463,0.0,12.978866835495928,32.75838084622718,-76.75
1772056147.1141372,30.681193104828807,0.7053868380584066,-7.1797003645758775,-0.13145451032165323,-1.1966089866849838,9.768493119750254,-0.0010901267461415813,-0.0010915343647501113,-0.001090830782496456,11.728383192044165,33.50757418406435,-78.5
1772056147.1786516,30.681193104828807,0.7053868380584066,-7.1797003645758775,-0.13070895744658387,-1.1977712926364794,9.772342299734069,-0.0010915343647501113,0.0010901267461415813,0.0,12.54136692655922,32.758098569108164,-77.5625
1772056147.220637,30.681193104828807,0.7053868380584066,-7.1797003645758775,-0.13070895744658387,-1.1977712926364794,9.772342299734069,-0.0010915343647501113,0.0010901267461415813,0.0,12.54136692655922,32.758098569108164,-77.5625
1772056147.2699776,30.681193104828807,0.7053868380584066,-7.1797003645758775,-0.1268655310432688,-1.2018877469921683,9.778248997722459,-0.003271787857033274,-0.001092941983358641,0.0,12.54136692655922,32.758098569108164,-77.5625
1772056147.2985194,30.681193104828807,0.7053868380584066,-7.1797003645758775,-0.12430777370574872,-1.2046272013820711,9.782179839251594,-7.038093042649527e-07,0.0010908305554458463,0.0,13.66636669239647,32.75882442455706,-77.1875
1772056147.3465114,30.681193104828807,0.7053868380584066,-7.1797003645758775,-0.1292979950740306,-1.2031094832303397,9.781450658671535,0.0,0.0,-0.001090830782496456,13.66636669239647,32.75882442455706,-77.1875
1772056147.3798814,30.681193104828807,0.7053868380584066,-7.1797003645758775,-0.13261893165019698,-1.202099458754385,9.777620285433668,-0.0010915343647501113,0.0010901267461415813,-0.001090830782496456,12.541608878375518,32.38309864716241,-77.5625
1772056147.408622,30.681193104828807,0.7053868380584066,-7.1797003645758775,-0.13261893165019698,-1.202099458754385,9.777620285433668,-0.0010915343647501113,0.0010901267461415813,-0.001090830782496456,12.541608878375518,32.38309864716241,-77.5625
1772056147.4354742,30.681193104828807,0.7053868380584066,-7.1797003645758775,-0.13482897784434342,-1.2014272987483496,9.77841632653926,0.0010915343647501113,-0.0010901267461415813,-0.001090830782496456,12.541608878375518,32.38309864716241,-77.5625
1772056147.4576159,30.681193104828807,0.7053868380584066,-7.1797003645758775,-0.13482897784434342,-1.2014272987483496,9.77841632653926,0.0010915343647501113,-0.0010901267461415813,-0.001090830782496456,12.541608878375518,32.38309864716241,-77.5625
1772056147.4933808,30.681193104828807,0.7053868380584066,-7.1797003645758775,-0.13295462788766205,-1.2009778254905767,9.778946083002669,-0.0010908305554458463,-7.038093042649527e-07,0.0,11.728584818557746,33.19507424910956,-78.875
1772056147.5376391,30.681193104828807,0.7053868380584066,-7.1797003645758775,-0.131709427211627,-1.197333595047422,9.7792986300113,-0.0010915343647501113,0.0010901267461415813,-0.001090830782496456,11.728584818557746,33.19507424910956,-78.875
1772056147.5688965,30.681193104828807,0.7053868380584066,-7.1797003645758775,-0.13088076007152866,-1.194908400396224,9.779533246107336,-0.0010908305554458463,-7.038093042649527e-07,0.001090830782496456,12.166084727494455,33.19535652622857,-78.0625
1772056147.595409,30.681193104828807,0.7053868380584066,-7.1797003645758775,-0.1303292913466117,-1.1932944604470512,9.776344268791096,-0.0010894229368373163,-0.0021823649201959576,-0.001090830782496456,12.166084727494455,33.19535652622857,-78.0625
1772056147.6252854,30.681193104828807,0.7053868380584066,-7.1797003645758775,-0.12995797850593777,-1.1989106234618716,9.777567151717667,-0.0010901267461415813,-0.0010915343647501113,0.002181661564992912,12.166084727494455,33.19535652622857,-78.0625
1772056147.6409817,30.681193104828807,0.7053868380584066,-7.1797003645758775,-0.12971303224058095,-1.1993030062005308,9.775035854937483,1.4076186085299053e-06,-0.0021816611108916926,0.0,12.978866835495928,32.75838084622718,-77.25
1772056147.6559193,30.681193104828807,0.7053868380584066,-7.1797003645758775,-0.12971303224058095,-1.1993030062005308,9.775035854937483,1.4076186085299053e-06,-0.0021816611108916926,0.0,12.978866835495928,32.75838084622718,-77.25
1772056147.6744173,30.681193104828807,0.7053868380584066,-7.1797003645758775,-0.13289513424826732,-1.1995662908121814,9.776696416914028,-2.111427912794858e-06,0.003272491666337539,-0.002181661564992912,12.978866835495928,32.75838084622718,-77.25
1772056147.6941848,30.681193104828807,0.7053868380584066,-7.1797003645758775,-0.13501278758797405,-1.1997415037801533,9.771111278945089,7.038093042649527e-07,-0.0010908305554458463,0.001090830782496456,12.978866835495928,32.75838084622718,-77.25
1772056147.7342038,30.681193104828807,0.7053868380584066,-7.1797003645758775,-0.13501278758797405,-1.1997415037801533,9.771111278945089,7.038093042649527e-07,-0.0010908305554458463,0.001090830782496456,12.978866835495928,32.75838084622718,-77.25
1772056147.773778,30.681193104828807,0.7053868380584066,-7.1797003645758775,-0.13307695121875884,-1.199855947770806,9.770739543724158,-1.4076186085299053e-06,0.0021816611108916926,-0.001090830782496456,12.166084727494455,33.19535652622857,-77.5625
1772056147.8313646,30.681193104828807,0.7053868380584066,-7.1797003645758775,-0.1284435627287031,-1.1999299506858867,9.763801934672543,7.038093042649527e-07,-0.0010908305554458463,0.001090830782496456,12.166084727494455,33.19535652622857,-77.5625
1772056147.891441,30.681193104828807,0.7053868380584066,-7.1797003645758775,-0.1284435627287031,-1.1999299506858867,9.763801934672543,0.0010901267461415813,0.0010915343647501113,-0.002181661564992912,12.540883022926623,33.508098412999665,-78.0625
1772056147.9218073,30.681193104828807,0.7053868380584066,-7.1797003645758775,-0.12870952202251498,-1.1932911350593773,9.765875256761504,-0.0010922381740543763,0.0021809573015874276,0.001090830782496456,12.540883022926623,33.508098412999665,-78.0625
1772056147.9900162,30.681193104828807,0.7053868380584066,-7.1797003645758775,-0.12554140395053456,-1.1888709191380893,9.767255029451182,0.0,0.0,0.0,12.541850830191816,32.00809872521666,-77.25
1772056148.0230656,30.681193104828807,0.7053868380584066,-7.1797003645758775,-0.12554140395053456,-1.1888709191380893,9.767255029451182,0.0,0.0,0.0,12.541850830191816,32.00809872521666,-77.25
1772056148.0649483,30.681193104828807,0.7053868380584066,-7.1797003645758775,-0.12677600949260606,-1.1892765841128472,9.768173252763091,-0.0010915343647501113,0.0010901267461415813,0.0,12.541850830191816,32.00809872521666,-77.25
1772056148.0948179,30.681193104828807,0.7053868380584066,-7.1797003645758775,-0.12759546740713162,-1.1928916606330262,9.768784320119941,0.0010901267461415813,0.0010915343647501113,-0.001090830782496456,12.541084649440204,33.19559847804487,-78.5
1772056148.1230972,30.681193104828807,0.7053868380584066,-7.1797003645758775,-0.12814296577757914,-1.1919523426631022,9.769190978619855,0.0010908305554458463,7.038093042649527e-07,0.0,12.541084649440204,33.19559847804487,-78.5
1772056148.154436,30.681193104828807,0.7053868380584066,-7.1797003645758775,-0.12814296577757914,-1.1919523426631022,9.769190978619855,0.0010908305554458463,7.038093042649527e-07,0.0,12.541084649440204,33.19559847804487,-78.5
1772056148.1717212,30.681193104828807,0.7053868380584066,-7.1797003645758775,-0.12850516154487895,-1.1946723480580395,9.769461605308875,-0.0010922381740543763,0.0021809573015874276,-0.001090830782496456,12.978866835495928,32.75838084622718,-77.5625
1772056148.191696,30.681193104828807,0.7053868380584066,-7.1797003645758775,-0.12850516154487895,-1.1946723480580395,9.769461605308875,-0.0010922381740543763,0.0021809573015874276,-0.001090830782496456,12.978866835495928,32.75838084622718,-77.5625
1772056148.2228007,30.681193104828807,0.7053868380584066,-7.1797003645758775,-0.12874835706430066,-1.1931373702528667,9.769641704347318,0.0010908305554458463,7.038093042649527e-07,0.001090830782496456,12.978866835495928,32.75838084622718,-77.5625
1772056148.2458534,30.681193104828807,0.7053868380584066,-7.1797003645758775,-0.12890588440125286,-1.1988060816924542,9.769761558245564,-0.0010887191275330515,-0.003273195475641804,-0.001090830782496456,12.16660895642977,32.38285669534611,-76.5
1772056148.2641973,30.681193104828807,0.7053868380584066,-7.1797003645758775,-0.12901287536657435,-1.1992334348207916,9.769841319675992,7.038093042649527e-07,-0.0010908305554458463,0.0,12.16660895642977,32.38285669534611,-76.5
1772056148.2812817,30.681193104828807,0.7053868380584066,-7.1797003645758775,-0.12901287536657435,-1.1992334348207916,9.769841319675992,7.038093042649527e-07,-0.0010908305554458463,0.0,12.16660895642977,32.38285669534611,-76.5
1772056148.3105562,30.681193104828807,0.7053868380584066,-7.1797003645758775,-0.12908407665882848,-1.1995178335538528,9.769894400016948,-0.0021802534922831626,-0.0021830687295002226,0.001090830782496456,12.541608878375518,32.38309864716241,-78.0625
1772056148.3399885,30.681193104828807,0.7053868380584066,-7.1797003645758775,-0.12908407665882848,-1.1995178335538528,9.769894400016948,-0.0021802534922831626,-0.0021830687295002226,0.001090830782496456,12.541608878375518,32.38309864716241,-78.0625
1772056148.3734436,30.681193104828807,0.7053868380584066,-7.1797003645758775,-0.1257863493124008,-1.1997049394514876,9.769929724390908,0.0,0.0,0.0,12.541608878375518,32.38309864716241,-78.0625
1772056148.397334,30.681193104828807,0.7053868380584066,-7.1797003645758775,-0.12693685961243356,-1.1998316146185293,9.769953232367179,-0.001092941983358641,0.003271787857033274,-0.001090830782496456,12.978866835495928,32.75838084622718,-78.0625
1772056148.4543805,30.681193104828807,0.7053868380584066,-7.1797003645758775,-0.12693685961243356,-1.1998316146185293,9.769953232367179,-0.001092941983358641,0.003271787857033274,-0.001090830782496456,12.978866835495928,32.75838084622718,-78.0625
1772056148.479984,30.681193104828807,0.7053868380584066,-7.1797003645758775,-0.13104762237611547,-1.1999180738094166,9.769968876662785,-1.4076186085299053e-06,0.0021816611108916926,0.001090830782496456,12.978866835495928,32.75838084622718,-78.0625
1772056148.503091,30.681193104828807,0.7053868380584066,-7.1797003645758775,-0.13378328907511686,-1.1999756114351396,9.769979287766754,1.4076186085299053e-06,-0.0021816611108916926,0.1407171709420428,13.228866783459763,32.75854214743804,-77.25
1772056148.5446167,30.681193104828807,0.7053868380584066,-7.1797003645758775,-0.1356081612684539,-1.1933236800602165,9.763295992825507,0.0010901267461415813,0.0010915343647501113,-0.001090830782496456,13.228866783459763,32.75854214743804,-77.25
1772056148.574942,30.681193104828807,0.7053868380584066,-7.1797003645758775,-0.1356081612684539,-1.1933236800602165,9.763295992825507,0.0010901267461415813,0.0010915343647501113,-0.001090830782496456,13.228866783459763,32.75854214743804,-77.25
1772056148.6079216,30.681193104828807,0.7053868380584066,-7.1797003645758775,-0.1334774823169094,-1.188894735754872,9.765538558114041,-0.0010908305554458463,-7.038093042649527e-07,-0.001090830782496456,13.228382879827166,33.508541991329544,-76.75
1772056148.6354856,30.681193104828807,0.7053868380584066,-7.1797003645758775,-0.13205522271134895,-1.1926375448163191,9.767030960262465,0.0,0.0,-0.001090830782496456,13.228382879827166,33.508541991329544,-76.75
1772056148.6568215,30.681193104828807,0.7053868380584066,-7.1797003645758775,-0.13205522271134895,-1.1926375448163191,9.767030960262465,0.0,0.0,-0.001090830782496456,13.228382879827166,33.508541991329544,-76.75
1772056148.6710732,30.681193104828807,0.7053868380584066,-7.1797003645758775,-0.1311087248315293,-1.1951283424367956,9.774714360635656,0.0010908305554458463,7.038093042649527e-07,0.001090830782496456,12.166084727494455,33.19535652622857,-76.75
1772056148.691523,30.681193104828807,0.7053868380584066,-7.1797003645758775,-0.13048315763013438,-1.1900957184070857,9.77313735434017,2.111427912794858e-06,-0.003272491666337539,0.002181661564992912,12.166084727494455,33.19535652622857,-76.75
1772056148.7113779,30.681193104828807,0.7053868380584066,-7.1797003645758775,-0.12672173863459732,-1.1867444050511322,9.775432985974158,7.038093042649527e-07,-0.0010908305554458463,0.0,12.166084727494455,33.19535652622857,-76.75
1772056148.7287965,30.681193104828807,0.7053868380584066,-7.1797003645758775,-0.12672173863459732,-1.1867444050511322,9.775432985974158,7.038093042649527e-07,-0.0010908305554458463,0.0,12.166084727494455,33.19535652622857,-76.75
1772056148.7498138,30.681193104828807,0.7053868380584066,-7.1797003645758775,-0.12756366732192298,-1.1845163017316438,9.773615591475371,7.038093042649527e-07,-0.0010908305554458463,0.001090830782496456,13.665882788763874,33.50882426844856,-76.75
1772056148.7636392,30.681193104828807,0.7053868380584066,-7.1797003645758775,-0.12811964489382757,-1.1897237458841736,9.775751247445376,0.0010915343647501113,-0.0010901267461415813,0.0,13.665882788763874,33.50882426844856,-76.75
1772056148.7874868,-121.91510143070656,-3.426954957053285,-1.200804655286842,-0.12848748347497813,-1.1965343528077719,9.773827390929254,-0.0010908305554458463,-7.038093042649527e-07,0.001090830782496456,13.665882788763874,33.50882426844856,-76.75
1772056148.8188224,-121.91510143070656,-3.426954957053285,-1.200804655286842,-0.12848748347497813,-1.1965343528077719,9.773827390929254,-0.0010908305554458463,-7.038093042649527e-07,0.001090830782496456,13.665882788763874,33.50882426844856,-76.75
1772056148.8428373,30.681193104828807,0.7053868380584066,-7.1797003645758775,-0.12873443422398312,-1.1977216246249098,9.7792373093233,0.0021802534922831626,0.0021830687295002226,0.0,12.978584558376912,33.19588075516389,-77.25
1772056148.858469,30.681193104828807,0.7053868380584066,-7.1797003645758775,-0.12889661890654985,-1.2018568517675723,9.77614732616715,-0.0010901267461415813,-0.0010915343647501113,0.0,12.978584558376912,33.19588075516389,-77.25
1772056148.8736236,30.681193104828807,0.7053868380584066,-7.1797003645758775,-0.12889661890654985,-1.2018568517675723,9.77614732616715,-0.0010901267461415813,-0.0010915343647501113,0.0,12.978584558376912,33.19588075516389,-77.25
1772056148.8952649,30.681193104828807,0.7053868380584066,-7.1797003645758775,-0.1323518202944041,-1.2012658465087234,9.774090976894106,7.038093042649527e-07,-0.0010908305554458463,0.0,12.978584558376912,33.19588075516389,-77.25
1772056148.9131973,30.681193104828807,0.7053868380584066,-7.1797003645758775,-0.1323518202944041,-1.2012658465087234,9.774090976894106,7.038093042649527e-07,-0.0010908305554458463,0.0,12.978584558376912,33.19588075516389,-77.25
1772056148.9298897,30.681193104828807,0.7053868380584066,-7.1797003645758775,-0.13465121822089263,-1.200872539110921,9.772722499423821,0.001092941983358641,-0.003271787857033274,0.001090830782496456,12.54136692655922,32.758098569108164,-76.875
1772056148.9427922,30.681193104828807,0.7053868380584066,-7.1797003645758775,-0.13465121822089263,-1.200872539110921,9.772722499423821,0.001092941983358641,-0.003271787857033274,0.001090830782496456,12.54136692655922,32.758098569108164,-76.875
1772056148.957004,30.681193104828807,0.7053868380584066,-7.1797003645758775,-0.13618360013728834,-1.1972656864201625,9.771811792954242,0.0,0.0,0.0,12.54136692655922,32.758098569108164,-76.875
1772056148.9845784,30.681193104828807,0.7053868380584066,-7.1797003645758775,-0.13618360013728834,-1.1972656864201625,9.771811792954242,0.0,0.0,0.0,12.54136692655922,32.758098569108164,-76.875
1772056149.028279,30.681193104828807,0.7053868380584066,-7.1797003645758775,-0.13720122490254663,-1.1982104772566995,9.774550839679314,1.4076186085299053e-06,-0.0021816611108916926,-0.001090830782496456,12.979108787312226,32.38338092428143,-76.75
1772056149.1004705,30.681193104828807,0.7053868380584066,-7.1797003645758775,-0.13788060109848801,-1.1954941139933577,9.776373644677692,0.001092941983358641,-0.003271787857033274,0.002181661564992912,12.979108787312226,32.38338092428143,-76.75
1772056149.1177952,30.681193104828807,0.7053868380584066,-7.1797003645758775,-0.13833056008548217,-1.1970315155964217,9.780931812749367,-0.0010908305554458463,-7.038093042649527e-07,-0.001090830782496456,12.541084649440204,33.19559847804487,-78.0625
1772056149.1699336,30.681193104828807,0.7053868380584066,-7.1797003645758775,-0.1352870500361788,-1.194707369896032,9.783965222682992,1.4076186085299053e-06,-0.0021816611108916926,-0.001090830782496456,12.541084649440204,33.19559847804487,-78.0625
1772056149.1944523,30.681193104828807,0.7053868380584066,-7.1797003645758775,-0.1352870500361788,-1.194707369896032,9.783965222682992,1.4076186085299053e-06,-0.0021816611108916926,-0.001090830782496456,12.541084649440204,33.19559847804487,-78.0625
1772056149.2309842,30.681193104828807,0.7053868380584066,-7.1797003645758775,-0.13325946981432685,-1.1965057879058834,9.785983923108411,-1.4076186085299053e-06,0.0021816611108916926,0.002181661564992912,13.228866783459763,32.75854214743804,-76.75
1772056149.2526414,30.681193104828807,0.7053868380584066,-7.1797003645758775,-0.131912296108515,-1.1943575039907417,9.773946898861888,0.0,0.0,-0.001090830782496456,13.228866783459763,32.75854214743804,-76.75
1772056149.2695098,30.681193104828807,0.7053868380584066,-7.1797003645758775,-0.131912296108515,-1.1943575039907417,9.773946898861888,0.0,0.0,-0.001090830782496456,13.228866783459763,32.75854214743804,-76.75
1772056149.2850075,30.681193104828807,0.7053868380584066,-7.1797003645758775,-0.12767065604516128,-1.1929256867608433,9.765936393688198,-0.0021823649201959576,0.0010894229368373163,0.0,11.729350999309357,32.00757449628135,-77.5625
1772056149.3123276,30.681193104828807,0.7053868380584066,-7.1797003645758775,-0.12484789196522357,-1.1919728283887923,9.773985938807591,0.0010901267461415813,0.0010915343647501113,-0.001090830782496456,11.729350999309357,32.00757449628135,-77.5625
1772056149.3468466,30.681193104828807,0.7053868380584066,-7.1797003645758775,-0.12484789196522357,-1.1919728283887923,9.773985938807591,0.0010901267461415813,0.0010915343647501113,-0.001090830782496456,11.729350999309357,32.00757449628135,-77.5625
1772056149.3720515,30.681193104828807,0.7053868380584066,-7.1797003645758775,-0.12630801016659163,-1.2013762031017499,9.779342821165237,0.0010894229368373163,0.0021823649201959576,0.0,11.478383244080332,33.50741288285349,-77.25
1772056149.3921425,30.681193104828807,0.7053868380584066,-7.1797003645758775,-0.12727970251901305,-1.2076340439306448,9.782907766533954,0.0010901267461415813,0.0010915343647501113,-0.001090830782496456,11.478383244080332,33.50741288285349,-77.25
1772056149.4196014,30.681193104828807,0.7053868380584066,-7.1797003645758775,-0.12727970251901305,-1.2076340439306448,9.782907766533954,0.0010901267461415813,0.0010915343647501113,-0.001090830782496456,11.478383244080332,33.50741288285349,-77.25
1772056149.43718,30.681193104828807,0.7053868380584066,-7.1797003645758775,-0.12727970251901305,-1.2076340439306448,9.782907766533954,0.0010901267461415813,0.0010915343647501113,-0.001090830782496456,11.478383244080332,33.50741288285349,-77.25
1772056149.4730442,30.681193104828807,0.7053868380584066,-7.1797003645758775,-0.12793066948958567,-1.2051083450755078,9.785280197853785,0.0,0.0,0.0,12.979108787312226,32.38338092428143,-78.0
1772056149.5029924,30.681193104828807,0.7053868380584066,-7.1797003645758775,-0.12836388073672422,-1.203427520701319,9.7801688009807,-0.0021823649201959576,0.0010894229368373163,0.0,12.979108787312226,32.38338092428143,-78.0
1772056149.5246882,30.681193104828807,0.7053868380584066,-7.1797003645758775,-0.12865433626468367,-1.1989638398452824,9.776767223459705,1.4076186085299053e-06,-0.0021816611108916926,0.0,12.165883100980874,33.507856461183366,-77.6875
1772056149.556929,30.681193104828807,0.7053868380584066,-7.1797003645758775,-0.1321927421849921,-1.195995468380448,9.777848623324914,1.4076186085299053e-06,-0.0021816611108916926,0.001090830782496456,12.165883100980874,33.507856461183366,-77.6875
1772056149.5880797,30.681193104828807,0.7053868380584066,-7.1797003645758775,-0.1321927421849921,-1.195995468380448,9.777848623324914,1.4076186085299053e-06,-0.0021816611108916926,0.001090830782496456,12.165883100980874,33.507856461183366,-77.6875
1772056149.6298425,30.681193104828807,0.7053868380584066,-7.1797003645758775,-0.13454751179837335,-1.1940200503294827,9.778568282855183,-0.0010894229368373163,-0.0021823649201959576,0.001090830782496456,11.478383244080332,33.50741288285349,-78.0
1772056149.6778224,30.681193104828807,0.7053868380584066,-7.1797003645758775,-0.13454751179837335,-1.1940200503294827,9.778568282855183,-0.0010894229368373163,-0.0021823649201959576,0.001090830782496456,11.478383244080332,33.50741288285349,-78.0
1772056149.7050192,30.681193104828807,0.7053868380584066,-7.1797003645758775,-0.13611242638930293,-1.196050542694483,9.779047208233452,7.038093042649527e-07,-0.0010908305554458463,-0.001090830782496456,12.166084727494455,33.19535652622857,-77.5625
1772056149.7594728,30.681193104828807,0.7053868380584066,-7.1797003645758775,-0.13715385956832518,-1.1974018126813046,9.776020816015425,-2.8152372170598107e-06,0.004363322221783385,0.001090830782496456,12.166084727494455,33.19535652622857,-77.5625
1772056149.792651,30.681193104828807,0.7053868380584066,-7.1797003645758775,-0.13715385956832518,-1.1974018126813046,9.776020816015425,-2.8152372170598107e-06,0.004363322221783385,0.001090830782496456,12.166084727494455,33.19535652622857,-77.5625
1772056149.8129194,30.681193104828807,0.7053868380584066,-7.1797003645758775,-0.13784692171539362,-1.1983010677628598,9.774006785801344,2.111427912794858e-06,-0.003272491666337539,0.002181661564992912,12.978221630652465,33.758380638082514,-78.0
1772056149.8650703,30.681193104828807,0.7053868380584066,-7.1797003645758775,-0.13496087753892846,-1.2022424647030738,9.772666471192064,-1.4076186085299053e-06,0.0021816611108916926,0.0,12.978221630652465,33.758380638082514,-78.0
1772056149.9011211,30.681193104828807,0.7053868380584066,-7.1797003645758775,-0.12969513636766455,-1.2048632620562223,9.771774506791884,7.038093042649527e-07,-0.0010908305554458463,-0.002181661564992912,13.229350687092358,32.00854230354655,-76.5
1772056149.9377708,30.681193104828807,0.7053868380584066,-7.1797003645758775,-0.1261908444403715,-1.2066073734185179,9.77118091444746,-0.0010922381740543763,0.0021809573015874276,-0.001090830782496456,13.229350687092358,32.00854230354655,-76.5
1772056149.9774115,30.681193104828807,0.7053868380584066,-7.1797003645758775,-0.1261908444403715,-1.2066073734185179,9.77118091444746,-0.0010922381740543763,0.0021809573015874276,-0.001090830782496456,13.229350687092358,32.00854230354655,-76.5
1772056150.0017474,30.681193104828807,0.7053868380584066,-7.1797003645758775,-0.12720820488386694,-1.201079996307296,9.770785885373105,-0.0021809573015874276,-0.001092238174054376,-0.001090830782496456,12.16660895642977,32.38285669534611,-77.25
1772056150.064148,30.681193104828807,0.7053868380584066,-7.1797003645758775,-0.12788308861207687,-1.2007466995956781,9.770522997936887,-0.0010887191275330515,-0.003273195475641804,0.001090830782496456,12.16660895642977,32.38285669534611,-77.25
1772056150.0763547,30.681193104828807,0.7053868380584066,-7.1797003645758775,-0.12788308861207687,-1.2007466995956781,9.770522997936887,-0.0010887191275330515,-0.003273195475641804,0.001090830782496456,12.16660895642977,32.38285669534611,-77.25
1772056150.1204371,30.681193104828807,0.7053868380584066,-7.1797003645758775,-0.12833221619425533,-1.2005248943572646,9.770348049284728,0.0010901267461415813,0.0010915343647501113,-0.001090830782496456,12.166367004613472,32.757856617291864,-77.6875
1772056150.1894991,30.681193104828807,0.7053868380584066,-7.1797003645758775,-0.13197621659416353,-1.2003794437311028,9.770231622911021,-1.4076186085299053e-06,0.0021816611108916926,-0.001090830782496456,12.166367004613472,32.757856617291864,-77.6875
1772056150.2085369,30.681193104828807,0.7053868380584066,-7.1797003645758775,-0.13197621659416353,-1.2003794437311028,9.770231622911021,-1.4076186085299053e-06,0.0021816611108916926,-0.001090830782496456,12.166367004613472,32.757856617291864,-77.6875
1772056150.2433782,30.681193104828807,0.7053868380584066,-7.1797003645758775,-0.13440125815415077,-1.2002826479641822,9.770154142459887,-7.038093042649527e-07,0.0010908305554458463,0.0,12.165883100980874,33.507856461183366,-77.1875
1772056150.2664423,30.681193104828807,0.7053868380584066,-7.1797003645758775,-0.13266998521178083,-1.2002160731803007,9.77010258008517,0.0,0.0,0.0,12.165883100980874,33.507856461183366,-77.1875
1772056150.2928534,30.681193104828807,0.7053868380584066,-7.1797003645758775,-0.13266998521178083,-1.2002160731803007,9.77010258008517,0.0,0.0,0.0,12.165883100980874,33.507856461183366,-77.1875
1772056150.3125873,30.681193104828807,0.7053868380584066,-7.1797003645758775,-0.13266998521178083,-1.2002160731803007,9.77010258008517,0.0,0.0,0.0,12.165883100980874,33.507856461183366,-77.1875
1772056150.3471358,30.681193104828807,0.7053868380584066,-7.1797003645758775,-0.1315156841259441,-1.2035168794163686,9.770068265900786,-2.111427912794858e-06,0.003272491666337539,0.001090830782496456,12.541084649440204,33.19559847804487,-77.25
1772056150.36474,30.681193104828807,0.7053868380584066,-7.1797003645758775,-0.1307475096477078,-1.2057135290940502,9.770045430194394,-0.0010901267461415813,-0.0010915343647501113,0.002181661564992912,12.541084649440204,33.19559847804487,-77.25
1772056150.3981786,30.681193104828807,0.7053868380584066,-7.1797003645758775,-0.1307475096477078,-1.2057135290940502,9.770045430194394,-0.0010901267461415813,-0.0010915343647501113,0.002181661564992912,12.541084649440204,33.19559847804487,-77.25
1772056150.4552739,30.681193104828807,0.7053868380584066,-7.1797003645758775,-0.134355549759187,-1.197008599563575,9.764448873733496,0.0010901267461415813,0.0010915343647501113,-0.002181661564992912,13.228584506340747,33.19604205637476,-77.25
1772056150.4996808,30.681193104828807,0.7053868380584066,-7.1797003645758775,-0.134355549759187,-1.197008599563575,9.764448873733496,0.0010901267461415813,0.0010915343647501113,-0.002181661564992912,13.228584506340747,33.19604205637476,-77.25
1772056150.5526185,30.681193104828807,0.7053868380584066,-7.1797003645758775,-0.1326417250678042,-1.1946921195321611,9.762960675772465,0.0010915343647501113,-0.0010901267461415813,0.0,13.228584506340747,33.19604205637476,-77.25
1772056150.5712304,30.681193104828807,0.7053868380584066,-7.1797003645758775,-0.13150119388036513,-1.1931505279480328,9.76531540836098,-0.0021795496829788976,-0.003273899284946069,0.001090830782496456,12.97793935353345,34.19588054701922,-77.25
1772056150.5984826,30.681193104828807,0.7053868380584066,-7.1797003645758775,-0.1340872941267448,-1.1921267742517772,9.76688245659455,0.0010922381740543763,-0.0021809573015874276,-0.001090830782496456,12.97793935353345,34.19588054701922,-77.25
1772056150.6152408,30.681193104828807,0.7053868380584066,-7.1797003645758775,-0.1340872941267448,-1.1921267742517772,9.76688245659455,0.0010922381740543763,-0.0021809573015874276,-0.001090830782496456,12.97793935353345,34.19588054701922,-77.25
1772056150.6399927,30.681193104828807,0.7053868380584066,-7.1797003645758775,-0.13581047323435336,-1.188100366591945,9.771270421396233,-1.4076186085299053e-06,0.0021816611108916926,0.002181661564992912,11.72910904749306,32.3825744182271,-77.25
1772056150.656763,30.681193104828807,0.7053868380584066,-7.1797003645758775,-0.13581047323435336,-1.188100366591945,9.771270421396233,-1.4076186085299053e-06,0.0021816611108916926,0.002181661564992912,11.72910904749306,32.3825744182271,-77.25
1772056150.6821368,30.681193104828807,0.7053868380584066,-7.1797003645758775,-0.13695722968129498,-1.1854208372722472,9.774190562954976,-0.0010908305554458463,-7.038093042649527e-07,0.0,11.72910904749306,32.3825744182271,-77.25
1772056150.7213724,30.681193104828807,0.7053868380584066,-7.1797003645758775,-0.13771822500435024,-1.1869827514533446,9.776133884542201,0.0021788458736746326,0.004364729840391915,-0.002181661564992912,12.541084649440204,33.19559847804487,-78.5
1772056150.7897978,30.681193104828807,0.7053868380584066,-7.1797003645758775,-0.13487738959764106,-1.1913651406219168,9.777427143350174,-0.0010915343647501113,0.0010901267461415813,0.001090830782496456,12.541084649440204,33.19559847804487,-78.5
1772056150.850115,30.681193104828807,0.7053868380584066,-7.1797003645758775,-0.13298468708641145,-1.1976266826701591,9.778287792640233,7.038093042649527e-07,-0.0010908305554458463,0.001090830782496456,11.478584870593913,33.19491294789869,-77.25
1772056150.8657854,30.681193104828807,0.7053868380584066,-7.1797003645758775,-0.13298468708641145,-1.1976266826701591,9.778287792640233,7.038093042649527e-07,-0.0010908305554458463,0.001090830782496456,11.478584870593913,33.19491294789869,-77.25
1772056150.884878,30.681193104828807,0.7053868380584066,-7.1797003645758775,-0.13298468708641145,-1.1976266826701591,9.778287792640233,7.038093042649527e-07,-0.0010908305554458463,0.001090830782496456,11.478584870593913,33.19491294789869,-77.25
1772056150.9302983,30.681193104828807,0.7053868380584066,-7.1797003645758775,-0.1317251147080605,-1.2017936689572568,9.778860545128685,-0.001092941983358641,0.003271787857033274,-0.001090830782496456,11.478584870593913,33.19491294789869,-77.25
1772056150.9687753,30.63034433898726,1.567334420397088,-6.944265723561826,-0.13088688336061335,-1.2045667517830334,9.775896593804365,-0.0010922381740543763,0.0021809573015874276,0.001090830782496456,12.166367004613472,32.757856617291864,-76.75
1772056150.985153,30.681193104828807,0.7053868380584066,-7.1797003645758775,-0.13032904976254495,-1.206412207426223,9.777269229014856,-7.038093042649527e-07,0.0010908305554458463,-0.001090830782496456,12.166367004613472,32.757856617291864,-76.75
1772056151.0053222,30.681193104828807,0.7053868380584066,-7.1797003645758775,-0.13032904976254495,-1.206412207426223,9.777269229014856,-7.038093042649527e-07,0.0010908305554458463,-0.001090830782496456,12.166367004613472,32.757856617291864,-76.75
1772056151.0214572,30.681193104828807,0.7053868380584066,-7.1797003645758775,-0.129962134298991,-1.2009501155195708,9.774837590706777,-7.038093042649527e-07,0.0010908305554458463,0.0,12.166367004613472,32.757856617291864,-76.75
1772056151.0338004,30.681193104828807,0.7053868380584066,-7.1797003645758775,-0.129962134298991,-1.2009501155195708,9.774837590706777,-7.038093042649527e-07,0.0010908305554458463,0.0,12.166367004613472,32.757856617291864,-76.75
1772056151.0661461,30.681193104828807,0.7053868380584066,-7.1797003645758775,-0.1330630671677624,-1.1973173126535337,9.773219362575931,-0.0010915343647501113,0.0010901267461415813,0.0,11.728383192044165,33.50757418406435,-77.25
1772056151.0959134,30.681193104828807,0.7053868380584066,-7.1797003645758775,-0.1351267033522399,-1.194899722927253,9.772142449831646,0.0010908305554458463,7.038093042649527e-07,0.0,11.728383192044165,33.50757418406435,-77.25
1772056151.124837,30.681193104828807,0.7053868380584066,-7.1797003645758775,-0.1331549191696308,-1.1932886856883846,9.771425776430227,0.0,0.0,0.001090830782496456,12.54136692655922,32.758098569108164,-77.5625
1772056151.1539006,30.681193104828807,0.7053868380584066,-7.1797003645758775,-0.1331549191696308,-1.1932886856883846,9.771425776430227,0.0,0.0,0.001090830782496456,12.54136692655922,32.758098569108164,-77.5625
1772056151.1784256,30.681193104828807,0.7053868380584066,-7.1797003645758775,-0.13184056054010151,-1.1955616694134352,9.77763906170199,-1.4076186085299053e-06,0.0021816611108916926,0.001090830782496456,12.54136692655922,32.758098569108164,-77.5625
1772056151.2344267,30.681193104828807,0.7053868380584066,-7.1797003645758775,-0.1309637112722222,-1.2004194257026164,9.781773933643402,-0.0010908305554458463,-7.038093042649527e-07,-0.001090830782496456,11.484714316606809,23.69491492527303,-77.25
1772056151.2715926,30.681193104828807,0.7053868380584066,-7.1797003645758775,-0.13038017787949666,-1.2036522082483734,9.784525644730866,-0.0010908305554458463,-7.038093042649527e-07,0.0,11.484714316606809,23.69491492527303,-77.25
1772056151.2936015,30.681193104828807,0.7053868380584066,-7.1797003645758775,-0.13038017787949666,-1.2036522082483734,9.784525644730866,-0.0010908305554458463,-7.038093042649527e-07,0.0,11.484714316606809,23.69491492527303,-77.25
1772056151.3208103,30.681193104828807,0.7053868380584066,-7.1797003645758775,-0.12999615948968388,-1.1991133668979228,9.786356877720948,7.038093042649527e-07,-0.0010908305554458463,0.0,12.978584558376912,33.19588075516389,-76.75
1772056151.3386621,30.681193104828807,0.7053868380584066,-7.1797003645758775,-0.12974059954102996,-1.196092818681378,9.780885319404995,-0.0010887191275330515,-0.003273195475641804,0.001090830782496456,12.978584558376912,33.19588075516389,-76.75
1772056151.3602648,30.681193104828807,0.7053868380584066,-7.1797003645758775,-0.12957052724999243,-1.194082677585002,9.773898946759719,0.0010922381740543763,-0.0021809573015874276,0.0,12.978584558376912,33.19588075516389,-76.75
1772056151.386425,30.681193104828807,0.7053868380584066,-7.1797003645758775,-0.12957052724999243,-1.194082677585002,9.773898946759719,0.0010922381740543763,-0.0021809573015874276,0.0,12.978584558376912,33.19588075516389,-76.75
1772056151.4102948,30.681193104828807,0.7053868380584066,-7.1797003645758775,-0.12945518775786347,-1.196090062151163,9.769249593807185,-0.0010908305554458463,-7.038093042649527e-07,0.0,12.540883022926623,33.508098412999665,-78.0
1772056151.4303708,30.681193104828807,0.7053868380584066,-7.1797003645758775,-0.12945518775786347,-1.196090062151163,9.769249593807185,-0.0010908305554458463,-7.038093042649527e-07,0.0,12.540883022926623,33.508098412999665,-78.0
1772056151.4682748,30.681193104828807,0.7053868380584066,-7.1797003645758775,-0.13272354162533043,-1.1974281124382642,9.766155501353948,7.038093042649527e-07,-0.0010908305554458463,0.001090830782496456,12.540883022926623,33.508098412999665,-78.0
1772056151.4912863,30.681193104828807,0.7053868380584066,-7.1797003645758775,-0.13489643633194925,-1.201663680968381,9.767441529096915,-0.0021802534922831626,-0.0021830687295002226,0.0,12.166084727494455,33.19535652622857,-77.5625
1772056151.5196154,30.681193104828807,0.7053868380584066,-7.1797003645758775,-0.13489643633194925,-1.201663680968381,9.767441529096915,-0.0021802534922831626,-0.0021830687295002226,0.0,12.166084727494455,33.19535652622857,-77.5625
1772056151.5373473,30.681193104828807,0.7053868380584066,-7.1797003645758775,-0.13634463176865527,-1.2011372934997209,9.76829736619399,-0.0010880153182287865,-0.00436402603108765,0.0,12.166084727494455,33.19535652622857,-77.5625
1772056151.5564597,30.681193104828807,0.7053868380584066,-7.1797003645758775,-0.13731054793665562,-1.1974418775084086,9.772212027929084,-0.0010915343647501113,0.0010901267461415813,-0.001090830782496456,11.728383192044165,33.50757418406435,-76.5
1772056151.6097631,30.681193104828807,0.7053868380584066,-7.1797003645758775,-0.13731054793665562,-1.1974418775084086,9.772212027929084,-0.0010915343647501113,0.0010901267461415813,-0.001090830782496456,11.728383192044165,33.50757418406435,-76.5
1772056151.6405268,30.681193104828807,0.7053868380584066,-7.1797003645758775,-0.13795335435646924,-1.1949826194466917,9.771472079876835,0.0,0.0,0.0,11.728383192044165,33.50757418406435,-76.5
