timestamp,yaw,pitch,roll,ax,ay,az,gx,gy,gz,mx,my,mz
1772306499.7489195,-0.10446020707217979,1.3528429570689993,-8.830028911687736,-0.23770490343457876,-1.4886079632701417,9.745511311631756,0.0,0.002181661564992912,0.0,-1.6875,-8.5625,-27.5625
1772306500.0448549,-170.11572808394783,1.356369173916192,-8.829019313905416,-0.2322708555518787,-1.4895897269364555,9.752022166781632,-0.001090830782496456,0.002181661564992912,-0.002181661564992912,-2.0625,-9.5625,-27.1875
1772306500.3340473,-169.78478871578514,1.353987760014294,-8.827641281492054,-0.2230785590394895,-1.4955475292554579,9.751790779160702,0.0,0.0,0.002181661564992912,-2.5,-9.1875,-28.0
1772306500.3777792,-169.62963969166353,1.351986810497302,-8.827061915524844,-0.22539385835834186,-1.4970369304568643,9.751191743527134,0.001090830782496456,0.0,0.001090830782496456,-2.875,-9.5625,-27.1875
1772306500.409018,-169.62963969166353,1.351986810497302,-8.827061915524844,-0.22539385835834186,-1.4970369304568643,9.751191743527134,0.001090830782496456,0.0,0.001090830782496456,-2.875,-9.5625,-27.1875
1772306500.4326763,-169.41117552469797,1.3548490313667871,-8.825694450958997,-0.23027977589876944,-1.4980281103186988,9.75079309200466,0.0,0.001090830782496456,0.0,-2.875,-9.5625,-27.1875
1772306500.4488325,-169.41117552469797,1.3548490313667871,-8.825694450958997,-0.23027977589876944,-1.4980281103186988,9.75079309200466,0.0,0.001090830782496456,0.0,-2.875,-9.5625,-27.1875
1772306500.4826882,-169.3472904174378,1.352764815000303,-8.825504807397166,-0.2301861877353295,-1.498687729444545,9.753872905577003,0.0,0.0,0.001090830782496456,-2.5,-9.1875,-28.75
1772306500.542712,-169.39016303828802,1.349535372032898,-8.826231826510917,-0.22677879415068913,-1.4991266986043674,9.752577375398305,-0.001090830782496456,-0.001090830782496456,-0.001090830782496456,-2.5,-9.1875,-28.75
1772306500.5813875,-169.29239977064253,1.3508266362981112,-8.832919863256302,-0.2245112117831913,-1.4994188276766223,9.755060326243722,-0.001090830782496456,0.001090830782496456,-0.001090830782496456,-2.875,-10.25,-28.0
1772306500.667018,0.1616557316485467,1.354057849087529,-8.83218703395746,0.4992860650463006,1.4323857892204457,9.757812340098823,0.00020045065647708295,0.001072255254293369,-0.002181661564992912,3.7845795432121405,9.020657968302546,-28.0
1772306500.7418563,0.20450084088450932,1.3504180782838013,-8.832568907264136,0.500101185837638,1.4323209984179823,9.75854413677353,0.00020045065647708295,0.001072255254293369,0.0,3.7845795432121405,9.020657968302546,-28.0
1772306500.7694383,0.20450084088450932,1.3504180782838013,-8.832568907264136,0.500101185837638,1.4323209984179823,9.75854413677353,0.00020045065647708295,0.001072255254293369,0.0,3.7845795432121405,9.020657968302546,-28.0
1772306500.8383548,0.302902356758399,1.3510051541505017,-8.831891653730793,0.49735549111588767,1.432892577338528,9.759031139285842,-0.0006713539413392031,0.0023449611650638207,0.002181661564992912,3.6582448004277413,8.34486526135344,-28.375
1772306500.885657,0.302902356758399,1.3510051541505017,-8.831891653730793,0.4982017139770476,1.429370111746482,9.759355234017612,0.0014731565672475347,0.001944059852109655,0.002181661564992912,3.6582448004277413,8.34486526135344,-28.375
1772306500.9632206,0.2890142743975885,1.3499485998817373,-8.83215749616512,0.49547671733533133,1.427640646719319,9.75288069202659,0.0,0.0,0.0,3.7845795432121405,9.020657968302546,-28.0
1772306501.0179703,0.24616740700870274,1.3535882232661567,-8.831772775990922,0.49366326251047615,1.4264897070631322,9.745226844949618,0.0006013519694312489,0.003216765762880107,-0.001090830782496456,3.7845795432121405,9.020657968302546,-28.0
1772306501.042485,0.253111562622956,1.3541165030282383,-8.831639868547631,0.4930711250579772,1.4290119180816676,9.740133295218968,-0.00020045065647708295,-0.001072255254293369,-0.002181661564992912,3.715669683511559,8.652043764512124,-28.75
1772306501.0585022,0.10492308139424839,1.3566408539331931,-8.832072849186206,0.4926770641979479,1.43069042133956,9.736743594771898,-0.0006013519694312489,-0.003216765762880107,-0.001090830782496456,3.715669683511559,8.652043764512124,-28.75
1772306501.0788276,0.10492308139424839,1.3566408539331931,-8.832072849186206,0.49241482109754664,1.4318074465075774,9.734487786989808,-0.00020045065647708295,-0.001072255254293369,0.001090830782496456,3.715669683511559,8.652043764512124,-28.75
1772306501.102686,0.10492308139424839,1.3566408539331931,-8.832072849186206,0.49241482109754664,1.4318074465075774,9.734487786989808,-0.00020045065647708295,-0.001072255254293369,0.001090830782496456,3.715669683511559,8.652043764512124,-28.75
1772306501.1158838,0.17554504088669862,1.3551146359588195,-8.831921872101528,0.49368436031909324,1.4220716722944113,9.73967679552449,-0.0004009013129541659,-0.002144510508586738,0.0,4.0882947048499,8.264470425036095,-27.5625
1772306501.1282406,0.17554504088669862,1.3551146359588195,-8.831921872101528,0.49368436031909324,1.4220716722944113,9.73967679552449,-0.0004009013129541659,-0.002144510508586738,0.0,4.0882947048499,8.264470425036095,-27.5625
1772306501.1627135,0.17554504088669862,1.3551146359588195,-8.831921872101528,0.49452922448935016,1.4155926233112732,9.736439799324659,0.0008718045978162861,-0.0012727059107704517,-0.001090830782496456,4.0882947048499,8.264470425036095,-27.5625
1772306501.1781347,0.17554504088669862,1.3551146359588195,-8.831921872101528,0.49452922448935016,1.4155926233112732,9.736439799324659,0.0008718045978162861,-0.0012727059107704517,-0.001090830782496456,4.0882947048499,8.264470425036095,-27.5625
1772306501.2193298,0.3591105366829982,1.3553639369628014,-8.831354039021853,0.4971041082886451,1.4171760003995104,9.732852028585143,-0.0006013519694312489,-0.003216765762880107,0.0,3.28963059663732,8.413775121054021,-27.5625
1772306501.2434275,0.27394356207735876,1.3557012088345108,-8.83124077106589,0.49803442151364785,1.4189109053592341,9.731897993164166,0.001272705910770452,0.000871804597816286,0.0,3.28963059663732,8.413775121054021,-27.5625
1772306501.2735093,0.27394356207735876,1.3557012088345108,-8.83124077106589,0.49803442151364785,1.4189109053592341,9.731897993164166,0.001272705910770452,0.000871804597816286,0.0,3.28963059663732,8.413775121054021,-27.5625
1772306501.322685,0.27394356207735876,1.3557012088345108,-8.83124077106589,0.5025563795513215,1.422738917256837,9.73126309324878,0.0,0.0,-0.001090830782496456,3.1891816725803794,9.577042615509104,-28.0
1772306501.351087,0.39435651844209657,1.3510629460048096,-8.831346855672752,0.5055656921118121,1.425286416412997,9.730840574447386,0.0008718045978162861,-0.0012727059107704517,0.0,3.1891816725803794,9.577042615509104,-28.0
1772306501.3739579,0.39435651844209657,1.3510629460048096,-8.831346855672752,0.5055656921118121,1.425286416412997,9.730840574447386,0.0008718045978162861,-0.0012727059107704517,0.0,3.1891816725803794,9.577042615509104,-28.0
1772306501.3935902,0.507303535376554,1.3528376266044535,-8.830928301577073,0.5042802075017052,1.4275964451198155,9.730559392904905,0.0023449611650638207,0.000671353941339203,0.0,4.58324365142472,8.871353272284619,-28.75
1772306501.4255688,0.464451251060046,1.356476899420677,-8.830537757484027,0.4995218868747692,1.426460291392427,9.730372269729386,0.0015431585391554891,-0.0036176670758342726,0.001090830782496456,4.58324365142472,8.871353272284619,-28.75
1772306501.4673295,0.45056517776551885,1.3554209638254189,-8.830805733834065,0.4930671291485781,1.4263188902543429,9.726902629639062,0.001272705910770452,0.000871804597816286,-0.001090830782496456,3.3470554797211376,8.720953624212706,-27.5625
1772306501.5050044,0.45056517776551885,1.3554209638254189,-8.830805733834065,0.4930671291485781,1.4263188902543429,9.726902629639062,0.001272705910770452,0.000871804597816286,-0.001090830782496456,3.3470554797211376,8.720953624212706,-27.5625
1772306501.5385005,0.4719222792936215,1.3500639040511604,-8.831069504979805,0.4887715599861661,1.426224789376502,9.72459362291737,-0.0023449611650638207,-0.000671353941339203,0.002181661564992912,3.3470554797211376,8.720953624212706,-27.5625
1772306501.5841892,0.5420168983903662,1.3554771138835437,-8.83025735581074,0.4892010551961221,1.4255474698176505,9.72305700473738,-0.0006713539413392031,0.0023449611650638207,0.0,4.709578394209119,9.547145979233726,-27.1875
1772306501.602176,0.5420168983903662,1.3554771138835437,-8.83025735581074,0.48948687946057196,1.42509672121739,9.732069737625704,0.00020045065647708295,0.001072255254293369,0.0,4.709578394209119,9.547145979233726,-27.1875
1772306501.629699,0.5420168983903662,1.3554771138835437,-8.83025735581074,0.48948687946057196,1.42509672121739,9.732069737625704,0.00020045065647708295,0.001072255254293369,0.0,4.709578394209119,9.547145979233726,-27.1875
1772306501.6638708,0.5420168983903662,1.3554771138835437,-8.83025735581074,0.49296524081858656,1.424182056583284,9.73806761068406,-0.0006013519694312489,-0.003216765762880107,0.0,3.7845795432121405,9.020657968302546,-27.5625
1772306501.720334,0.5420168983903662,1.3554771138835437,-8.83025735581074,0.49296524081858656,1.424182056583284,9.73806761068406,-0.0006013519694312489,-0.003216765762880107,0.0,3.7845795432121405,9.020657968302546,-27.5625
1772306501.782174,0.8737823204493401,1.35319215020363,-8.829270009662544,0.49260659941943785,1.4274762024654737,9.745404239911084,0.0,0.0,-0.001090830782496456,3.7845795432121405,9.020657968302546,-27.5625
1772306501.8701706,0.8599008779387434,1.352137275123569,-8.829541348074073,0.4937826237498082,1.4274300937266542,9.74796465099559,-0.002545411821540904,-0.001743609195632572,-0.001090830782496456,3.9109142859965393,9.69645067525165,-26.75
1772306501.9602635,0.8599008779387434,1.352137275123569,-8.829541348074073,0.49520931418064096,1.422446741419831,9.745300386266583,-0.0014731565672475347,-0.001944059852109655,-0.001090830782496456,3.6582448004277413,8.34486526135344,-26.75
1772306501.9981835,0.838390001558726,1.3504194198302517,-8.829420244084949,0.49677345720100813,1.4224185246302223,9.746872459558537,-0.001272705910770452,-0.000871804597816286,0.001090830782496456,3.6582448004277413,8.34486526135344,-26.75
1772306502.0467439,0.8453305966111541,1.3509468751927018,-8.829284815627345,0.4971996804326157,1.4191115981690503,9.747918656773122,0.001272705910770452,0.000871804597816286,0.0,3.58933494072716,7.976251057563019,-28.0
1772306502.1004996,0.8737823204493401,1.35319215020363,-8.829270009662544,0.4974833272320251,1.4169108755499296,9.74861488933264,0.0004009013129541659,0.002144510508586738,-0.001090830782496456,3.58933494072716,7.976251057563019,-28.0
1772306502.1236193,0.7255922953278312,1.3557219397380147,-8.829688109281312,0.49767209100848975,1.4154463192305873,9.742388000908933,-0.0006713539413392031,0.0023449611650638207,-0.001090830782496456,2.7401726324726132,9.215902570787526,-28.0
1772306502.1709263,0.7255922953278312,1.3557219397380147,-8.829688109281312,0.49767209100848975,1.4154463192305873,9.742388000908933,-0.0006713539413392031,0.0023449611650638207,-0.001090830782496456,2.7401726324726132,9.215902570787526,-28.0
1772306502.2211275,0.7255922953278312,1.3557219397380147,-8.829688109281312,0.5049887046747007,1.4165304289114715,9.738244076221857,-0.0004709032848621201,0.00341721641935719,0.001090830782496456,2.7401726324726132,9.215902570787526,-28.0
1772306502.2489455,0.7047672061404998,1.3541390282252688,-8.830093446252445,0.49999338382896574,1.4190959812212747,9.73548634063328,0.001272705910770452,0.000871804597816286,0.0,3.3470554797211376,8.720953624212706,-26.75
1772306502.2782943,0.894603866395101,1.3547742910041485,-8.828862535017057,0.49666905360751923,1.4208033276243515,9.730305986697688,0.00020045065647708295,0.001072255254293369,-0.002181661564992912,3.3470554797211376,8.720953624212706,-26.75
1772306502.3100107,0.9513465700291055,1.3521905224523176,-8.82899541199398,0.49507144545617277,1.4252276960861796,9.730203630729216,-0.0014731565672475347,-0.001944059852109655,-0.003272492347489368,4.7640874117990055,8.138135682251695,-28.375
1772306502.3383062,0.9513465700291055,1.3521905224523176,-8.82899541199398,0.4972964035807935,1.4275573673982676,9.72679040226827,0.0008718045978162861,-0.0012727059107704517,0.0,4.7640874117990055,8.138135682251695,-28.375
1772306502.3635166,0.8807229181892453,1.3537195533906574,-8.829134247045888,0.5020652368612073,1.428493041156504,9.72786404856309,0.0008718045978162861,-0.0012727059107704517,0.0,4.7640874117990055,8.138135682251695,-28.375
1772306502.4170551,1.0358492327436837,1.3517157289676527,-8.828585824978948,0.5052388421379646,1.4291157215904498,9.725233436471559,0.0,0.0,0.001090830782496456,4.890422154583404,8.813928389200802,-29.1875
1772306502.4310791,1.0358492327436837,1.3517157289676527,-8.828585824978948,0.5052388421379646,1.4291157215904498,9.725233436471559,0.0,0.0,0.001090830782496456,4.890422154583404,8.813928389200802,-29.1875
1772306502.4525468,1.0358492327436837,1.3517157289676527,-8.828585824978948,0.5067361445223282,1.4262419599605551,9.723482793510506,-0.001072255254293369,0.00020045065647708295,0.002181661564992912,4.890422154583404,8.813928389200802,-29.1875
1772306502.4878747,1.0358492327436837,1.3517157289676527,-8.828585824978948,0.5011562855273797,1.4255588966495296,9.722317760175889,0.0004009013129541659,0.002144510508586738,-0.001090830782496456,3.715669683511559,8.652043764512124,-26.75
1772306502.531293,1.1064715729674608,1.350186200403497,-8.828450299084716,0.5040192487031295,1.4238749326947107,9.728232666920615,0.0,0.0,0.0,3.715669683511559,8.652043764512124,-26.75
1772306502.5523338,1.1064715729674608,1.350186200403497,-8.828450299084716,0.5040192487031295,1.4238749326947107,9.728232666920615,0.0,0.0,0.0,3.715669683511559,8.652043764512124,-26.75
1772306502.5827856,1.1134105968711843,1.3507132844015715,-8.828313655747275,0.5059245187151968,1.4227542734938885,9.732168971285393,0.001072255254293369,-0.00020045065647708295,0.001090830782496456,3.58933494072716,7.976251057563019,-28.375
1772306502.624611,1.28311998452519,1.349898372225454,-8.828025747303421,0.5071924546249671,1.4220084873143248,9.734788537868752,0.0016736072237246177,0.003016315106403024,0.001090830782496456,3.58933494072716,7.976251057563019,-28.375
1772306502.6462436,1.28311998452519,1.349898372225454,-8.828025747303421,0.5047481033062575,1.422126871418627,9.733186718460182,0.0,0.0,0.0,4.7640874117990055,8.138135682251695,-26.75
1772306502.6749604,1.2969961000997041,1.3509520724459054,-8.827750806833444,0.503736111284674,1.4254938032204927,9.732120725537273,-0.00020045065647708295,-0.001072255254293369,0.001090830782496456,4.7640874117990055,8.138135682251695,-26.75
1772306502.7149498,1.2969961000997041,1.3509520724459054,-8.827750806833444,0.503736111284674,1.4254938032204927,9.732120725537273,-0.00020045065647708295,-0.001072255254293369,0.001090830782496456,4.7640874117990055,8.138135682251695,-26.75
1772306502.7524827,1.2756547984534985,1.3563077932091814,-8.827448555587216,0.5003891898719368,1.4316373037022554,9.731411319154999,-0.00020045065647708295,-0.001072255254293369,-0.001090830782496456,3.2207207369367388,8.0451609172636,-28.75
1772306502.781401,1.2402500472476892,1.3535360524355282,-8.827609533611712,0.49816185105932204,1.4357257346454717,9.734284328839504,-0.0008718045978162861,0.0012727059107704517,-0.001090830782496456,3.2207207369367388,8.0451609172636,-28.75
1772306502.8040147,1.2402500472476892,1.3535360524355282,-8.827609533611712,0.4966795819605318,1.438446539767416,9.73619628469092,0.001072255254293369,-0.00020045065647708295,0.002181661564992912,3.28963059663732,8.413775121054021,-28.375
1772306502.8182516,1.2402500472476892,1.3535360524355282,-8.827609533611712,0.4966795819605318,1.438446539767416,9.73619628469092,0.001072255254293369,-0.00020045065647708295,0.002181661564992912,3.28963059663732,8.413775121054021,-28.375
1772306502.8366904,1.0497280918518561,1.352770041161411,-8.828312938526084,0.4950784519574932,1.4369690566797957,9.734123558244772,0.00020045065647708295,0.001072255254293369,0.0,3.28963059663732,8.413775121054021,-28.375
1772306502.8499367,1.0497280918518561,1.352770041161411,-8.828312938526084,0.49339822135044065,1.4326976596866623,9.732744181948732,-0.0030163151064030243,0.0016736072237246177,-0.001090830782496456,3.28963059663732,8.413775121054021,-28.375
1772306502.8664923,1.0497280918518561,1.352770041161411,-8.828312938526084,0.49339822135044065,1.4326976596866623,9.732744181948732,-0.0030163151064030243,0.0016736072237246177,-0.001090830782496456,3.28963059663732,8.413775121054021,-28.375
1772306502.8902786,1.0643083283605628,1.353960864143065,-8.828567068384618,0.4955681951537424,1.4292403962265385,9.735171334139679,0.0006713539413392031,-0.0023449611650638207,-0.001090830782496456,4.214629447634298,8.940263131985201,-27.5625
1772306502.915423,1.028909677872099,1.3511885382621034,-8.828722174904918,0.5003004369825335,1.426324929538165,9.740131688517007,-0.00020045065647708295,-0.001072255254293369,0.0,4.214629447634298,8.940263131985201,-27.5625
1772306502.9448204,1.028909677872099,1.3511885382621034,-8.828722174904918,0.5003004369825335,1.426324929538165,9.740131688517007,-0.00020045065647708295,-0.001072255254293369,0.0,4.214629447634298,8.940263131985201,-27.5625
1772306502.9729047,1.2194348731767803,1.3519553537732887,-8.828021531110503,0.503449691056989,1.4243847190249495,9.74343274894433,-0.0004009013129541659,-0.002144510508586738,0.0,4.695177552098424,7.769521478461275,-28.0
1772306503.0206523,1.1765664975795365,1.3555932044542405,-8.82760811093714,0.5079639816788055,1.4277106337305436,9.747091526180816,-0.00020045065647708295,-0.001072255254293369,0.0,3.3470554797211376,8.720953624212706,-28.75
1772306503.072237,1.1904436015968847,1.3566470094699647,-8.827333472940307,0.5058762424178895,1.429209734664361,9.744719331455794,-0.00020045065647708295,-0.001072255254293369,0.0,3.3470554797211376,8.720953624212706,-28.75
1772306503.118647,1.2124963120407626,1.3514284076654395,-8.828158739364953,0.5038721787855012,1.4269192210868726,9.743140662365445,-0.001944059852109655,0.0014731565672475347,0.0,4.0882947048499,8.264470425036095,-27.1875
1772306503.1338086,1.2124963120407626,1.3514284076654395,-8.828158739364953,0.5025384968250043,1.425394909887767,9.742090075720705,0.0014731565672475347,0.001944059852109655,0.001090830782496456,4.0882947048499,8.264470425036095,-27.1875
1772306503.1462767,1.2124963120407626,1.3514284076654395,-8.828158739364953,0.5025384968250043,1.425394909887767,9.742090075720705,0.0014731565672475347,0.001944059852109655,0.001090830782496456,4.0882947048499,8.264470425036095,-27.1875
1772306503.1665502,1.2124963120407626,1.3514284076654395,-8.828158739364953,0.49836279787560783,1.4249951942882586,9.741390922044454,0.0008718045978162861,-0.0012727059107704517,0.0,4.0882947048499,8.264470425036095,-27.1875
1772306503.185595,1.2124963120407626,1.3514284076654395,-8.828158739364953,0.49836279787560783,1.4249951942882586,9.741390922044454,0.0008718045978162861,-0.0012727059107704517,0.0,4.0882947048499,8.264470425036095,-27.1875
1772306503.2165732,1.2263733494556057,1.3524822766114948,-8.827884260729919,0.4961986133462225,1.4280173365247908,9.740925643082967,0.0008718045978162861,-0.0012727059107704517,0.002181661564992912,4.214629447634298,8.940263131985201,-27.5625
1772306503.2516694,1.135984148633284,1.3351004509040083,-8.760925966547944,0.4941436762416174,1.426740389920773,9.740616005131605,-0.0004009013129541659,-0.002144510508586738,-0.001090830782496456,4.214629447634298,8.940263131985201,-27.5625
1772306503.277307,1.2263733494556057,1.3524822766114948,-8.827884260729919,0.4894879900507648,1.4265052926960515,9.740409944533855,0.0014731565672475347,0.001944059852109655,0.0,4.214629447634298,8.940263131985201,-27.1875
1772306503.355853,1.2263733494556057,1.3524822766114948,-8.827884260729919,0.48638968289817486,1.4263488381192075,9.7402728135079,0.00020045065647708295,0.001072255254293369,0.002181661564992912,4.214629447634298,8.940263131985201,-27.1875
1772306503.3693638,1.2263733494556057,1.3524822766114948,-8.827884260729919,0.4888453355530232,1.4322063198759845,9.7435266660493,0.00020045065647708295,0.001072255254293369,-0.001090830782496456,3.715669683511559,8.652043764512124,-28.0
1772306503.4052627,1.2263733494556057,1.3524822766114948,-8.827884260729919,0.4904795449633872,1.4361044085527612,9.745692068567688,0.0,0.0,0.0,3.715669683511559,8.652043764512124,-28.0
1772306503.4664996,1.2263733494556057,1.3524822766114948,-8.827884260729919,0.4936258486219098,1.4315075495410488,9.747133119754544,0.0014731565672475347,0.001944059852109655,0.0,5.1327016155894265,8.069225822551115,-28.375
1772306503.4982314,1.2263733494556057,1.3524822766114948,-8.827884260729919,0.49243153005725243,1.4290630876948587,9.741401899807162,0.0,0.0,-0.001090830782496456,5.1327016155894265,8.069225822551115,-28.375
1772306503.55065,1.2263733494556057,1.3524822766114948,-8.827884260729919,0.49243153005725243,1.4290630876948587,9.741401899807162,0.0,0.0,-0.001090830782496456,5.1327016155894265,8.069225822551115,-28.375
1772306503.5873234,1.2263733494556057,1.3524822766114948,-8.827884260729919,0.49163672439388545,1.427436325642647,9.7375878369541,-0.0004009013129541659,-0.002144510508586738,0.0,4.0882947048499,8.264470425036095,-28.0
1772306503.6170142,1.2263733494556057,1.3524822766114948,-8.827884260729919,0.4917224865793002,1.4296418821719123,9.745084955853219,-0.0016736072237246177,-0.003016315106403024,0.001090830782496456,4.0882947048499,8.264470425036095,-28.0
1772306503.6317034,1.2263733494556057,1.3524822766114948,-8.827884260729919,0.4917224865793002,1.4296418821719123,9.745084955853219,-0.0016736072237246177,-0.003016315106403024,0.001090830782496456,4.0882947048499,8.264470425036095,-28.0
1772306503.6456919,1.2263733494556057,1.3524822766114948,-8.827884260729919,0.4917795603556673,1.431109655404458,9.750074204732277,0.002144510508586738,-0.0004009013129541659,-0.002181661564992912,3.8649743795294853,9.450707872724704,-27.1875
1772306503.6743019,1.2263733494556057,1.3524822766114948,-8.827884260729919,0.49181754231628366,1.4320864420946153,9.74335915900577,0.001072255254293369,-0.00020045065647708295,-0.001090830782496456,3.8649743795294853,9.450707872724704,-27.1875
1772306503.7333724,1.2263733494556057,1.3524822766114948,-8.827884260729919,0.49061342593513885,1.4261601857197141,9.732200147672117,0.003216765762880107,-0.0006013519694312489,0.0,4.295024283951643,9.370313036407358,-27.1875
1772306503.767784,1.2263733494556057,1.3524822766114948,-8.827884260729919,0.48981209993434827,1.4222163283028386,9.731464173698534,0.0,0.0,0.001090830782496456,4.295024283951643,9.370313036407358,-27.1875
1772306503.8004284,1.2263733494556057,1.3524822766114948,-8.827884260729919,0.49318167141093394,1.4222651872747472,9.734319502947802,-0.001272705910770452,-0.000871804597816286,0.0,3.715669683511559,8.652043764512124,-28.0
1772306503.8522918,1.2263733494556057,1.3524822766114948,-8.827884260729919,0.4966534765396708,1.4288739993805408,9.73956480437439,0.0004009013129541659,0.002144510508586738,-0.001090830782496456,3.715669683511559,8.652043764512124,-28.0
1772306503.873597,1.2263733494556057,1.3524822766114948,-8.827884260729919,0.4966534765396708,1.4288739993805408,9.73956480437439,0.0004009013129541659,0.002144510508586738,-0.001090830782496456,3.715669683511559,8.652043764512124,-28.0
1772306503.8900034,1.2263733494556057,1.3524822766114948,-8.827884260729919,0.49834922759441636,1.4299839415087883,9.74305549387993,0.001272705910770452,0.000871804597816286,-0.001090830782496456,4.019384845149318,7.8958562212456735,-28.75
1772306503.90882,1.2263733494556057,1.3524822766114948,-8.827884260729919,0.499477730978569,1.4307225955962712,9.74537850875231,0.001272705910770452,0.000871804597816286,-0.001090830782496456,4.019384845149318,7.8958562212456735,-28.75
1772306503.9298477,1.2432505564127971,1.2612419493668168,-7.9392728144129965,0.5002287373745139,1.4312141616401843,9.746924449200103,0.0018740578802017007,0.004088570360696393,0.0,4.019384845149318,7.8958562212456735,-28.75
1772306503.9551392,1.2263733494556057,1.3524822766114948,-8.827884260729919,0.5001138272658996,1.4282531448483664,9.744608143591503,0.001072255254293369,-0.00020045065647708295,0.001090830782496456,3.415965339421719,9.089567828003126,-29.1875
1772306503.9824984,1.2263733494556057,1.3524822766114948,-8.827884260729919,0.5001138272658996,1.4282531448483664,9.744608143591503,0.001072255254293369,-0.00020045065647708295,0.001090830782496456,3.415965339421719,9.089567828003126,-29.1875
1772306504.0027823,1.2263733494556057,1.3524822766114948,-8.827884260729919,0.5039402008509607,1.4289560732772015,9.743066668083808,0.0,0.0,-0.002181661564992912,3.415965339421719,9.089567828003126,-29.1875
1772306504.040999,1.2263733494556057,1.3524822766114948,-8.827884260729919,0.4992956162468219,1.4273651087431256,9.742040833352847,-0.0006013519694312489,-0.003216765762880107,0.0,4.0882947048499,8.264470425036095,-26.0
1772306504.0647445,1.2263733494556057,1.3524822766114948,-8.827884260729919,0.49353124504911206,1.4302091845966503,9.744703263506038,0.002144510508586738,-0.0004009013129541659,0.0,4.0882947048499,8.264470425036095,-26.0
1772306504.0918577,1.2263733494556057,1.3524822766114948,-8.827884260729919,0.49043037081668395,1.4327467600106647,9.740963982387877,-0.0014731565672475347,-0.001944059852109655,0.001090830782496456,3.7845795432121405,9.020657968302546,-27.5625
1772306504.1518426,1.2263733494556057,1.3524822766114948,-8.827884260729919,0.4942078202524144,1.432561220446565,9.733951296096105,-0.001272705910770452,-0.000871804597816286,0.0,3.7845795432121405,9.020657968302546,-27.5625
1772306504.1735945,1.2263733494556057,1.3524822766114948,-8.827884260729919,0.49672167065501804,1.4324377459392694,9.732629543413088,-0.00020045065647708295,-0.001072255254293369,-0.001090830782496456,3.7845795432121405,9.020657968302546,-27.5625
1772306504.2040212,1.2263733494556057,1.3524822766114948,-8.827884260729919,0.49672167065501804,1.4324377459392694,9.732629543413088,-0.00020045065647708295,-0.001072255254293369,-0.001090830782496456,3.7845795432121405,9.020657968302546,-27.5625
1772306504.2201505,1.2263733494556057,1.3524822766114948,-8.827884260729919,0.5016827585192912,1.4317408785581405,9.745130378596762,-0.001072255254293369,0.00020045065647708295,0.0,3.715669683511559,8.652043764512124,-28.0
1772306504.2422771,1.2263733494556057,1.3524822766114948,-8.827884260729919,0.5016827585192912,1.4317408785581405,9.745130378596762,-0.001072255254293369,0.00020045065647708295,0.0,3.715669683511559,8.652043764512124,-28.0
1772306504.2629054,1.2263733494556057,1.3524822766114948,-8.827884260729919,0.5049843070739823,1.431277121100518,9.753449544768019,0.0004009013129541659,0.002144510508586738,0.0,3.715669683511559,8.652043764512124,-28.0
1772306504.2846456,1.2263733494556057,1.3524822766114948,-8.827884260729919,0.5049843070739823,1.431277121100518,9.753449544768019,0.0004009013129541659,0.002144510508586738,0.0,3.715669683511559,8.652043764512124,-28.0
1772306504.3329787,1.2263733494556057,1.3524822766114948,-8.827884260729919,0.4998791022299452,1.432401575521536,9.757098964637645,-0.001072255254293369,0.00020045065647708295,-0.001090830782496456,4.145719587933717,8.57164892819478,-27.5625
1772306504.3596234,1.2263733494556057,1.3524822766114948,-8.827884260729919,0.4998791022299452,1.432401575521536,9.757098964637645,-0.001072255254293369,0.00020045065647708295,-0.001090830782496456,4.145719587933717,8.57164892819478,-27.5625
1772306504.3941503,1.2263733494556057,1.3524822766114948,-8.827884260729919,0.4972076969558046,1.4329462005008375,9.758069393373042,-0.0004009013129541659,-0.002144510508586738,-0.001090830782496456,4.58324365142472,8.871353272284619,-28.375
1772306504.417495,1.2263733494556057,1.3524822766114948,-8.827884260729919,0.49481521011159174,1.4300204938378138,9.75202497944141,-0.0014731565672475347,-0.001944059852109655,0.0,4.58324365142472,8.871353272284619,-28.375
1772306504.445364,1.2263733494556057,1.3524822766114948,-8.827884260729919,0.4965111853454868,1.4274587722600318,9.748002489490437,0.0008718045978162861,-0.0012727059107704517,0.002181661564992912,4.58324365142472,8.871353272284619,-28.375
1772306504.4634285,1.2263733494556057,1.3524822766114948,-8.827884260729919,0.4965111853454868,1.4274587722600318,9.748002489490437,0.0008718045978162861,-0.0012727059107704517,0.002181661564992912,4.58324365142472,8.871353272284619,-28.375
1772306504.5012343,1.2263733494556057,1.3524822766114948,-8.827884260729919,0.4976398379183593,1.425753975166323,9.74532556736222,0.0,0.0,0.0,3.039876976562453,8.778378507296523,-27.5625
1772306504.520709,1.2263733494556057,1.3524822766114948,-8.827884260729919,0.4996203365493794,1.43119574875007,9.740198993881753,0.0006713539413392031,-0.0023449611650638207,-0.002181661564992912,3.039876976562453,8.778378507296523,-27.5625
1772306504.5601192,1.2263733494556057,1.3524822766114948,-8.827884260729919,0.500938336264704,1.4348171882814598,9.73678731649808,0.0017436091956325721,-0.0025454118215409035,0.0,2.9135422337780543,8.102585800347418,-27.1875
1772306504.6030486,1.2263733494556057,1.3524822766114948,-8.827884260729919,0.5012007538764065,1.43393906733258,9.727826659895541,0.001944059852109655,-0.0014731565672475347,0.001090830782496456,2.9135422337780543,8.102585800347418,-27.1875
1772306504.6337047,1.2263733494556057,1.3524822766114948,-8.827884260729919,0.5013753898655978,1.4333546876503542,9.721863443023643,-0.0004009013129541659,-0.002144510508586738,-0.001090830782496456,2.9824520934786354,8.471200004137838,-26.75
1772306504.668501,1.2263733494556057,1.3524822766114948,-8.827884260729919,0.49491531115981385,1.4341951824514305,9.724585212223532,0.0008718045978162861,-0.0012727059107704517,0.0,2.9824520934786354,8.471200004137838,-26.75
1772306504.6968296,1.2263733494556057,1.3524822766114948,-8.827884260729919,0.49123089742074655,1.4380426708554943,9.733086742636543,-0.001944059852109655,0.0014731565672475347,0.001090830782496456,2.9824520934786354,8.471200004137838,-26.75
1772306504.7245219,1.2263733494556057,1.3524822766114948,-8.827884260729919,0.4887789612349954,1.440603131409137,9.738744416158083,0.00020045065647708295,0.001072255254293369,0.001090830782496456,2.6138378896882144,8.54010986383842,-28.375
1772306504.7608433,1.2263733494556057,1.3524822766114948,-8.827884260729919,0.4996851226290334,1.4365601548991807,9.742509534686313,0.00020045065647708295,0.001072255254293369,-0.001090830782496456,2.6138378896882144,8.54010986383842,-28.375
1772306504.8381488,1.238391892930792,1.3757689930587884,-8.839349199376548,0.49379045719540243,1.4363283850981092,9.745015179007721,-0.0008018026259083318,-0.004289021017173476,-0.00545415391248228,4.295024283951643,9.370313036407358,-27.5625
1772306504.8771038,1.238391892930792,1.3757689930587884,-8.839349199376548,0.49379045719540243,1.4363283850981092,9.745015179007721,-0.0008018026259083318,-0.004289021017173476,-0.00545415391248228,4.295024283951643,9.370313036407358,-27.5625
1772306504.9043384,1.2308492202511863,1.3910704802610996,-8.788782993729013,0.4886382302453996,1.4295978478787554,9.750027769021056,-0.012997511736089555,-0.004228574304512301,0.009817477042468103,4.295024283951643,9.370313036407358,-27.5625
1772306504.941894,1.2308492202511863,1.3910704802610996,-8.788782993729013,0.4886382302453996,1.4295978478787554,9.750027769021056,-0.012997511736089555,-0.004228574304512301,0.009817477042468103,4.295024283951643,9.370313036407358,-27.5625
1772306504.9832346,1.2445870614011714,1.3928313617635883,-8.795442628372136,0.4876682666676165,1.4382713445558604,9.753363591680632,0.014470668303337092,0.006172634156621956,0.001090830782496456,3.2207207369367388,8.0451609172636,-27.1875
1772306505.01859,1.4196691053819055,1.4132997859872483,-8.792782520476909,0.5726025335033651,1.2646979549126187,9.758928656104318,0.03531442141977322,-0.00105314473579981,0.02181661564992912,3.2207207369367388,8.0451609172636,-27.1875
1772306505.0547225,1.4196691053819055,1.4132997859872483,-8.792782520476909,0.5726025335033651,1.2646979549126187,9.758928656104318,0.03531442141977322,-0.00105314473579981,0.02181661564992912,3.2207207369367388,8.0451609172636,-27.1875
1772306505.0967653,1.3986710619849567,1.3949292961771167,-9.034466622000727,0.6887508974595956,1.4681372078271275,9.662278793092858,0.07995779604638734,-0.029374018854549183,-0.013089969389957472,4.514333791724138,8.502739068494199,-27.5625
1772306505.1343648,1.4785210092409604,1.4512707533715605,-9.105774269684005,0.4654979709537821,1.4521224174660676,9.698312740128022,0.03185586880624841,-0.049234629207093455,0.016362461737446838,4.514333791724138,8.502739068494199,-27.5625
1772306505.19329,3.4846345343581424,1.5358326586461453,-9.38569118589255,0.2622272087698094,1.5129453559462107,9.715602705939723,0.08868851244097746,0.05888181133855329,0.5345070834232635,3.039876976562453,8.778378507296523,-29.1875
1772306505.2549908,6.26381882018487,1.926337223405539,-9.676453382154532,0.12695278721957085,1.5534223420680044,9.737144320167795,0.1587542243480798,-0.017470988048427054,1.2522737383059315,3.039876976562453,8.778378507296523,-29.1875
1772306505.3021653,6.26381882018487,1.926337223405539,-9.676453382154532,0.12695278721957085,1.5534223420680044,9.737144320167795,0.1587542243480798,-0.017470988048427054,1.2522737383059315,3.039876976562453,8.778378507296523,-29.1875
1772306505.364373,27.2035982086615,5.498177977459104,-7.161549726499044,0.2594278128258406,1.3923535310402086,9.83901772096528,-0.003388760429322143,0.32023520065568395,2.8067076033633813,9.278611708832212,2.016809610925579,-30.5
1772306505.4208443,32.039759407498146,5.364588508858744,-6.555464426642973,0.2587624218434147,1.2780275807563166,9.585117814518897,-0.008005565630361337,0.4320710911839937,3.0085112981252258,14.128937707886534,-7.410011841870572,-28.75
1772306505.4436698,32.039759407498146,5.364588508858744,-6.555464426642973,0.2587624218434147,1.2780275807563166,9.585117814518897,-0.008005565630361337,0.4320710911839937,3.0085112981252258,14.128937707886534,-7.410011841870572,-28.75
1772306505.4919403,36.8506411974948,5.007137750886962,-6.116592191335295,0.22574069835882127,1.0276730672937886,9.416150263026623,0.10398299925819166,0.5265473318299521,2.8405233576207713,14.128937707886534,-7.410011841870572,-28.75
1772306505.5279253,47.64479356837255,4.1873786349718385,-5.659055581715184,0.20376511025664554,0.8610649352276358,9.414092931341278,0.28978227665706985,0.43410758847139075,2.700897017461225,-1992.5358664487173,357.230854512121,-25.1875
1772306505.567655,51.90275912528655,3.9893536494995825,-5.466259227455906,0.2361601058309074,0.8196695352806069,9.452865140574414,0.12467096285720408,0.31072179215367907,2.4347343065320897,-1992.5358664487173,357.230854512121,-25.1875
1772306505.6218114,59.56385003053604,3.953475738012103,-4.837264243329479,0.3199494670454215,0.8519520304560884,9.518808953192943,-0.05987139420451142,0.18431012547031758,2.222022303945281,22.72940034025281,-29.427867068010823,-20.75
1772306505.646588,62.978676071003,4.070674703820305,-4.333692209576708,0.38680418940550443,0.8781678779545771,9.562693823849921,-0.1402427619802802,0.11055674451547307,2.0354902401383868,22.72940034025281,-29.427867068010823,-20.75
1772306505.6762583,68.4319160200542,4.061040752603696,-3.5278700241793755,0.4645767757009089,0.9098108543495336,9.44471379992396,-0.11293369640316302,0.16759627890874548,1.9896753472735358,23.51475855840868,-33.38964854471736,-19.5625
1772306505.7395232,70.65042223533199,3.8692431495759867,-3.271915855851477,0.6027815472158385,1.0474274602371958,9.366199411924455,-0.012100366305418716,0.1964644983863312,1.5915221116623293,23.51475855840868,-33.38964854471736,-19.5625
1772306505.7560358,70.65042223533199,3.8692431495759867,-3.271915855851477,0.6027815472158385,1.0474274602371958,9.366199411924455,-0.012100366305418716,0.1964644983863312,1.5915221116623293,23.51475855840868,-33.38964854471736,-19.5625
1772306505.8049607,74.4565374855717,3.6726968720378443,-3.0319321381664635,0.685905560129782,1.1644855996007444,9.477859437432615,0.03749382802046129,0.18275429651473482,1.4169891864628963,23.656958086025796,-40.791829256801165,-14.5
1772306505.8185992,77.20037566187939,3.508339088943557,-3.6463000873304097,0.7486000198778382,1.2818442657567635,9.56554838391336,0.12037571152566964,0.07404294410172313,0.8399397025222711,23.656958086025796,-40.791829256801165,-14.5
1772306505.8317916,77.20037566187939,3.508339088943557,-3.6463000873304097,0.7486000198778382,1.2818442657567635,9.56554838391336,0.12037571152566964,0.07404294410172313,0.8399397025222711,23.656958086025796,-40.791829256801165,-14.5
1772306505.8449433,78.03905555505837,3.4016964149396216,-4.024717990340109,0.7599290852670467,1.324790240397491,9.62390439824658,0.23776377372267657,0.09648718731279544,0.7330382858376184,23.656958086025796,-40.791829256801165,-14.5
1772306505.8638036,79.111580377198,3.1164227565319798,-4.640188635621945,0.7419926263060885,1.3445205881021378,9.609217886588835,0.32920770390091886,0.14042742706314948,0.6348635154129374,23.266468881055836,-42.880643078280215,-13.25
1772306505.8934538,80.03973660475685,2.7869895259869613,-5.304620233193587,0.6538433030841415,1.3140463190645217,9.532541942993303,0.49570950187969687,0.17033612086010777,0.5181446216858165,23.266468881055836,-42.880643078280215,-13.25
1772306505.9118423,80.62110944300717,2.5176707866846963,-5.793579837851229,0.5169093474743511,1.2573524318888492,9.48151495905689,0.5087674603284476,0.1867604042748013,0.5050546522958591,23.266468881055836,-42.880643078280215,-13.25
1772306505.926291,80.62110944300717,2.5176707866846963,-5.793579837851229,0.5169093474743511,1.2573524318888492,9.48151495905689,0.5087674603284476,0.1867604042748013,0.5050546522958591,23.266468881055836,-42.880643078280215,-13.25
1772306505.950552,81.46922982485984,2.0404836901496135,-6.566411779563395,0.3906557248601222,1.1955622150420697,9.494388635158437,0.5313166016035291,0.24801895771333923,0.47123889803846897,23.3898877583463,-43.921039171471826,-11.0
1772306505.9739969,82.66599996551729,1.3763809577679642,-7.595954451300985,0.29019460684128,1.1575149983516089,9.646795726210366,0.5203840431448715,0.2667086450619418,0.5094179754258449,23.3898877583463,-43.921039171471826,-11.0
1772306506.0112772,83.55024785340655,0.9381271497322075,-8.099251404813531,0.19887775642831756,1.1469770179746295,9.76160138963594,0.38047862060770393,0.24847386563688828,0.48978302134090873,25.0876648988284,-45.38291605796276,-9.0
1772306506.0309606,83.55024785340655,0.9381271497322075,-8.099251404813531,0.19887775642831756,1.1469770179746295,9.76160138963594,0.38047862060770393,0.24847386563688828,0.48978302134090873,25.0876648988284,-45.38291605796276,-9.0
1772306506.0521147,84.09948716084884,0.6689601816481904,-8.32547003756365,0.17117426181173262,1.1712161714758924,9.83800327618237,0.29304370355900333,0.22597873097240156,0.44724062082354693,25.0876648988284,-45.38291605796276,-9.0
1772306506.081699,84.7970537503588,0.35824374256030733,-8.655631856585186,0.1954838261502706,1.1793560031761796,9.885502766506706,0.2608251544767879,0.2020391055184077,0.3883357585687383,25.0876648988284,-45.38291605796276,-9.0
1772306506.116885,85.55028286225162,0.12297542902245566,-8.852350158781455,0.23139046067927768,1.1810847913898963,9.917113146713477,0.06789565077795573,0.09606073537928142,0.29561514205653955,25.33340770135535,-45.428855964429815,-4.5625
1772306506.1305554,85.9681855343228,0.18163291222800504,-8.791185483030619,0.2423772988626303,1.113184162073616,9.911388607971444,-0.05998584752776749,0.023420945872897867,0.24107360293171676,25.33340770135535,-45.428855964429815,-4.5625
1772306506.1474586,85.9681855343228,0.18163291222800504,-8.791185483030619,0.2423772988626303,1.113184162073616,9.911388607971444,-0.05998584752776749,0.023420945872897867,0.24107360293171676,25.33340770135535,-45.428855964429815,-4.5625
1772306506.1830375,86.25680994721549,0.3075074722924198,-8.779778467194252,0.2332481744281799,1.0710705341424822,9.884163209434673,-0.0488750640883069,-0.07742193948409319,0.28034351110158917,25.33340770135535,-45.428855964429815,-4.5625
1772306506.2382166,86.87904615645087,0.7466500881631456,-8.682541462670637,0.26098115026639723,1.2238925528532822,9.76234654790918,-0.06337751332656484,-0.14906259086527185,0.3119776037939864,24.987763450798454,-45.23707470346576,-3.0625
1772306506.26266,87.59576390177294,1.3489644280797175,-8.484880035139362,0.27943713588909186,1.3255938991715142,9.681278920445237,-0.10670996100542138,-0.19089965630120678,0.28907015736156083,24.987763450798454,-45.23707470346576,-3.0625
1772306506.2824976,87.97103564125126,1.677442772339609,-8.313902003208176,0.2560083887653558,1.3114713268476403,9.627329319952718,-0.11924612471589559,-0.1807880109869511,0.2585268954516601,25.080738215786553,-46.78044137832802,-2.6875
1772306506.3054771,87.97103564125126,1.677442772339609,-8.313902003208176,0.2560083887653558,1.3114713268476403,9.627329319952718,-0.11924612471589559,-0.1807880109869511,0.2585268954516601,25.080738215786553,-46.78044137832802,-2.6875
1772306506.3217988,88.2807056545805,2.0418377897791067,-8.104053383318726,0.223576046404259,1.2848028076115328,9.554630234700959,-0.17990332618500227,-0.15502210394898944,0.20616701789183017,25.080738215786553,-46.78044137832802,-2.6875
1772306506.3359187,88.5824743576729,1.7563136915128117,-8.48837738149363,0.2151452788675096,1.2645964200634852,9.4360024597142,-0.1983321161644666,-0.1526866980431724,0.1908953869368798,25.080738215786553,-46.78044137832802,-2.6875
1772306506.3628068,88.71990816426457,2.5080956953103892,-7.584046210599775,0.22493141104073505,1.27889854196893,9.357057000619585,-0.22447669883970842,-0.132262956758184,0.1734420944169365,26.3674245875321,-47.72038854746269,-3.5
1772306506.3920639,89.01440537682481,2.7749521685277143,-7.1542633338391735,0.24459656669531527,1.2859576584285362,9.304519679470681,-0.2108873903934344,-0.10706018065266643,0.136353847812057,26.3674245875321,-47.72038854746269,-3.5
1772306506.4370677,89.01440537682481,2.7749521685277143,-7.1542633338391735,0.24459656669531527,1.2859576584285362,9.304519679470681,-0.2108873903934344,-0.10706018065266643,0.136353847812057,26.3674245875321,-47.72038854746269,-3.5
1772306506.4727669,89.3631197319985,3.1229898195846566,-7.291761340585629,0.25276593630266087,1.2643502335537908,9.279592014248376,-0.17295755518021233,-0.1119314431207776,0.10253809355466686,25.384453377424308,-47.53662892159448,-5.5
1772306506.5211787,89.52635253358673,3.2914067066255104,-7.3285156994205485,0.26806700602717976,1.2481266442429255,9.263002931503197,0.19445687666437989,-0.1173625115764471,0.013089969389957472,25.384453377424308,-47.53662892159448,-5.5
1772306506.5410557,89.70054503049387,3.4534605202399042,-7.340260327070557,0.24905639083075048,1.2632058825614927,9.332245763224142,-0.00867982494117574,-0.05830268504479608,0.04145156973486533,27.500795445711805,-49.14033634503449,-4.25
1772306506.5634737,89.70054503049387,3.4534605202399042,-7.340260327070557,0.24905639083075048,1.2632058825614927,9.332245763224142,-0.00867982494117574,-0.05830268504479608,0.04145156973486533,27.500795445711805,-49.14033634503449,-4.25
1772306506.588143,89.86386048072946,3.626883473349968,-7.161434488672238,0.2364050387800132,1.2732409472163702,9.378326094241318,-0.10730819781767212,-0.07537609672515476,0.10471975511965978,27.500795445711805,-49.14033634503449,-4.25
1772306506.62813,90.50006098048645,4.003789593717388,-6.775331300136976,0.14845544476993827,1.29138373756207,9.736812987099524,-0.06234347910925858,-0.0782332973692483,0.210530341021816,27.569705305412388,-48.77172214124407,-4.25
1772306506.662076,90.7003379419468,4.163895252406585,-6.609419469533194,0.06487947924158317,1.260496965207555,9.975382009735677,-0.12111706743891677,-0.06613625600871538,0.11999138607461016,27.569705305412388,-48.77172214124407,-4.25
1772306506.6931505,91.04112748378188,4.345858515078289,-6.241927463527481,0.009260607787170218,1.2399421632334797,9.746114071260386,-0.1854014912431045,-0.024156071471784026,0.1734420944169365,25.419455783301597,-48.369747959657346,-3.875
1772306506.7286723,91.28421235169941,4.351794407555976,-5.974550771587548,0.008387201774068362,1.2739559763715518,9.586848595881126,-0.22237684947017508,0.07486364745841974,0.22143864884678055,25.419455783301597,-48.369747959657346,-3.875
1772306506.758669,91.82431161394744,4.132617552919007,-5.431799082591278,0.14833768095811092,1.3383815965563879,9.48085920112816,-0.1433068533829171,0.20101753192982344,0.22362031041177347,25.419455783301597,-48.369747959657346,-3.875
1772306506.777998,92.06888356429069,3.9098309947073733,-5.244260100429184,0.3279797494088112,1.3889057547326795,9.447120671679691,-0.10681839380202172,0.2596702268341593,0.1930770485018727,23.016536775622004,-49.31935919196883,-1.0625
1772306506.8116143,92.30733277047544,3.4154842529774645,-5.307357907640456,0.4432266638985899,1.3995119780869476,9.44808383916704,-0.06399818560219493,0.2572139275030199,0.12435470920459599,23.016536775622004,-49.31935919196883,-1.0625
1772306506.8392465,92.52243326315123,3.0297609965269037,-5.585189547326184,0.50489621276464,1.4536191071182691,9.42530903441935,0.10424410641503519,0.16583688413950512,0.13962634015954636,21.956634070717797,-48.86688681034014,2.5
1772306506.8527842,92.72214292368912,2.8772240540520886,-5.6834928269341125,0.5410190368344021,1.4633216090492638,9.359975980661208,0.1276523818715058,0.12483984236646564,0.16798794050445423,21.956634070717797,-48.86688681034014,2.5
1772306506.8771899,92.72214292368912,2.8772240540520886,-5.6834928269341125,0.5410190368344021,1.4633216090492638,9.359975980661208,0.1276523818715058,0.12483984236646564,0.16798794050445423,21.956634070717797,-48.86688681034014,2.5
1772306506.912489,92.93441021529641,2.7186105910620966,-5.972611038169078,0.6536237161886924,1.4702371498433051,9.316497563203196,0.20065485165385638,0.07013259872182975,0.1189005552921137,21.956634070717797,-48.86688681034014,2.5
1772306506.9407728,92.786057118397,2.473336298981642,-6.7072782797304695,0.7778830999656267,1.4656189178527212,9.307633832314552,0.25287401503243206,0.03484684307979689,-0.05672320068981571,20.28693265307113,-49.63565428227734,7.25
1772306506.965276,92.2953992565019,2.3466069879668585,-7.301894540756813,0.9261246357349312,1.467307045525803,9.4188140281787,0.3552982799655657,-0.028689784709077404,-0.3043417883165112,20.28693265307113,-49.63565428227734,7.25
1772306507.000315,91.75758619297731,2.453278138520235,-7.507392234966677,1.1398629194240768,1.4469160989807632,9.68347457387933,-0.01854324330272042,-0.1585537736916027,-0.23452861823673804,20.28693265307113,-49.63565428227734,7.25
1772306507.0551565,90.9383186069399,2.984183813303076,-7.930186537131499,1.2950119855984434,1.5023972703975157,9.85960321059109,-0.021731343287860184,-0.2112247298365469,-0.26725354171163174,20.48217725555611,-48.59124737153782,10.375
1772306507.0873942,90.65421161925907,3.1713888424905603,-8.062309774749647,1.0800434552863136,1.3844152149731088,9.822939712300284,0.004556358488378015,-0.12403159963849102,-0.11453723216212788,20.48217725555611,-48.59124737153782,10.375
1772306507.1158984,90.48658002451218,3.4334173728257755,-8.065631939915175,0.8343197920721084,1.5394847791765665,9.798540563745865,-0.015466481483656223,-0.1480316718051461,-0.032724923474893676,23.269206261190803,-47.96777377807062,8.6875
1772306507.1301987,90.48658002451218,3.4334173728257755,-8.065631939915175,0.8343197920721084,1.5394847791765665,9.798540563745865,-0.015466481483656223,-0.1480316718051461,-0.032724923474893676,23.269206261190803,-47.96777377807062,8.6875
1772306507.1444263,90.44183094381103,3.4723017329292256,-7.938199919493525,0.5229732659635913,1.3980708559570085,9.782303202939248,-0.09166349135321288,-0.009497622928397136,-0.016362461737446838,23.269206261190803,-47.96777377807062,8.6875
1772306507.1638603,90.52669674379081,3.516840219302411,-7.822539841204086,0.31884911318607834,1.3204022122658687,9.674489181193387,-0.13334144232683834,-0.012803501181678755,0.1090830782496456,23.269206261190803,-47.96777377807062,8.6875
1772306507.1979005,91.01347401842173,3.734978834836724,-7.524808472087141,0.18300676972883625,1.2687145975050138,9.602740154083053,-0.12729925685478552,-0.033908151667253146,0.17562375598192942,23.568910605280642,-48.40529784156163,7.1875
1772306507.2446895,91.3303603570141,3.8197897055120724,-7.413257004668718,0.24079610922566153,1.5537261061934453,9.534921307786357,0.014429332109169475,-0.04153794702980957,0.06435901616729091,23.568910605280642,-48.40529784156163,7.1875
1772306507.2916994,91.225309981361,3.6596497869721234,-7.4274044828514825,0.45681428826760967,1.710204471743916,9.70053066072318,-0.00628085716551703,0.09106213938378162,-0.0719948316447661,22.26381257387648,-48.92431169342396,7.1875
1772306507.3488019,91.02656085780797,3.367846881237298,-7.531300248491026,0.5753694178300539,1.67952498742141,9.717078707320004,0.08744758746512785,0.12347802396529367,-0.08508480103472356,22.26381257387648,-48.92431169342396,7.1875
1772306507.3720098,91.02656085780797,3.367846881237298,-7.531300248491026,0.5753694178300539,1.67952498742141,9.717078707320004,0.08744758746512785,0.12347802396529367,-0.08508480103472356,22.26381257387648,-48.92431169342396,7.1875
1772306507.4188488,90.94347874219284,3.049982608176061,-7.6941870307350655,0.6099204802604973,1.58572483753015,9.748161917720315,0.11886433392143497,0.14312862840211407,-0.0545415391248228,22.5060920348825,-49.669014260073645,7.5625
1772306507.4443989,90.97026292680891,3.0109693684844,-7.732488404090533,0.5095643046457288,1.6280347016478192,9.76884744701951,0.002125399990093178,0.035113970763296136,0.05672320068981571,22.5060920348825,-49.669014260073645,7.5625
1772306507.4672542,91.01008018564474,3.015977393628765,-7.706120014770719,0.44277839082603637,1.6561914435859773,9.802684105939539,-0.02037284983157401,0.003808562473064576,0.04363323129985824,23.20029640149022,-48.336387981861044,8.0
1772306507.500143,91.01008018564474,3.015977393628765,-7.706120014770719,0.44277839082603637,1.6561914435859773,9.802684105939539,-0.02037284983157401,0.003808562473064576,0.04363323129985824,23.20029640149022,-48.336387981861044,8.0
1772306507.5369701,91.02199969642817,2.9984555978061738,-7.672861366270275,0.5331471998450399,1.6497268853056046,9.825202024470572,-0.01320751765181342,0.01245660647931948,-0.019634954084936207,23.20029640149022,-48.336387981861044,8.0
1772306507.561805,90.97315680403024,2.9864534091577113,-7.685290169916462,0.5902131503823236,1.628984051469417,9.840187447711342,0.0025549670807876834,-0.01601382684249258,0.006544984694978736,22.712821613984243,-48.56317164870238,8.375
1772306507.5867515,90.97315680403024,2.9864534091577113,-7.685290169916462,0.5902131503823236,1.628984051469417,9.840187447711342,0.0025549670807876834,-0.01601382684249258,0.006544984694978736,22.712821613984243,-48.56317164870238,8.375
1772306507.6193306,90.93150118743227,3.6888819931365204,-8.259722393482601,0.5361631164993089,1.584892543229802,9.721920588966164,0.034452172081203714,-0.017537874863154508,-0.04799655442984406,23.20029640149022,-48.336387981861044,8.0
1772306507.678056,90.93150118743227,3.6888819931365204,-8.259722393482601,0.5361631164993089,1.584892543229802,9.721920588966164,0.034452172081203714,-0.017537874863154508,-0.04799655442984406,23.20029640149022,-48.336387981861044,8.0
1772306507.7042897,91.04183058369647,3.0031542996557836,-7.656975804532829,0.5326042039261978,1.6310129356104088,9.66106611977085,-0.017156084068693903,0.003207210503633327,0.030543261909900768,23.20029640149022,-48.336387981861044,8.0
1772306507.7478974,91.02217005880662,3.0018929666555407,-7.657624839026886,0.5105068963471139,1.665393720396109,9.654019267383523,0.008307589405961914,0.002885866421833895,-0.017453292519943295,22.34420741019382,-48.4942617890018,8.375
1772306507.7686472,91.02199969642817,2.9984555978061738,-7.672861366270275,0.4859369394876646,1.6901178380399349,9.649329665838257,0.01012120057350244,-0.005221272327650936,0.019634954084936207,22.34420741019382,-48.4942617890018,8.375
1772306507.8064196,91.04167736830992,3.007571419376683,-7.651568868128914,0.47637687079164936,1.6882866302034898,9.66627945864008,-0.015342472901153377,-0.0048999282458515045,0.003272492347489368,22.34420741019382,-48.4942617890018,8.375
1772306507.843355,91.00741156776549,2.9953867624991846,-7.653370768763408,0.45031516274555705,1.6363016952255092,9.68759469153006,-0.0017436091956325721,0.0025454118215409035,-0.022907446432425576,23.568910605280642,-48.40529784156163,8.375
1772306507.8916175,91.05150746766549,3.008201485051949,-7.651243863233973,0.5513447332732581,1.579577228577758,9.70177974091159,0.0018740578802017007,0.004088570360696393,0.031634092692397225,23.568910605280642,-48.40529784156163,8.375
1772306507.9450011,91.02201667414381,3.006311087478091,-7.6522185698728515,0.5012201646090533,1.5875885388032203,9.701184397695656,-0.003216765762880107,0.0006013519694312489,-0.018544123302439753,22.712821613984243,-48.56317164870238,6.75
1772306507.9859617,91.04167736830992,3.007571419376683,-7.651568868128914,0.5566428336691607,1.5763231714188073,9.70078820343587,-0.0016736072237246177,-0.003016315106403024,0.011999138607461015,22.712821613984243,-48.56317164870238,6.75
1772306508.0308754,91.03372026204418,2.961784802718769,-7.696128753445631,0.5047459912388671,1.5854230001141387,9.700524540581762,0.004489471673650559,0.0002704526283850371,-0.007635815477475192,23.06247668208906,-49.07361638944188,6.6875
1772306508.0672927,91.02596028853027,2.9115751717086864,-7.746085603692693,0.5281443449915111,1.5010330306986495,9.741457163852694,0.00020045065647708295,0.001072255254293369,-0.009817477042468103,23.06247668208906,-49.07361638944188,6.6875
1772306508.0918336,91.02596028853027,2.9115751717086864,-7.746085603692693,0.5281443449915111,1.5010330306986495,9.741457163852694,0.00020045065647708295,0.001072255254293369,-0.009817477042468103,23.06247668208906,-49.07361638944188,6.6875
1772306508.126727,91.02268233191494,2.7924635460715295,-7.848274377864004,0.5133444482431115,1.4825225122363321,9.751005061388339,0.0061630788973751766,0.003286767734788061,0.003272492347489368,24.617328333568086,-48.91920592382205,6.75
1772306508.169705,91.02433052635985,2.737003143331501,-7.9381960905779945,0.5108716399926237,1.5096617510103734,9.733943298590072,-0.0014731565672475347,-0.001944059852109655,0.0,24.617328333568086,-48.91920592382205,6.75
1772306508.2247846,91.01555730436318,2.6340790227520365,-8.008745014446458,0.4763445286961075,1.533869576007581,9.722588886040203,-0.001944059852109655,0.0014731565672475347,-0.004363323129985824,22.34420741019382,-48.4942617890018,8.0
1772306508.2451491,91.00854690731195,2.5671545766612165,-8.09009716674925,0.4698078643358283,1.5469061307449763,9.715032651325364,0.0008718045978162861,-0.0012727059107704517,-0.006544984694978736,22.34420741019382,-48.4942617890018,8.0
1772306508.2790601,91.00854690731195,2.5671545766612165,-8.09009716674925,0.4698078643358283,1.5469061307449763,9.715032651325364,0.0008718045978162861,-0.0012727059107704517,-0.006544984694978736,22.34420741019382,-48.4942617890018,8.0
1772306508.31743,91.01115344758273,2.513171343948249,-8.145113298201803,0.46238430484426574,1.5391410697804073,9.71669428494595,-0.0006713539413392031,0.0023449611650638207,0.003272492347489368,22.34420741019382,-48.4942617890018,8.0
1772306508.3434885,91.01067794858409,2.435929268352328,-8.217801106943412,0.46051749130834596,1.5504142509643486,9.707764748436828,0.00341721641935719,0.00047090328486212,-0.003272492347489368,23.69232948257111,-49.44569393475323,7.5625
1772306508.3589828,91.01067794858409,2.435929268352328,-8.217801106943412,0.46051749130834596,1.5504142509643486,9.707764748436828,0.00341721641935719,0.00047090328486212,-0.003272492347489368,23.69232948257111,-49.44569393475323,7.5625
1772306508.3735378,91.00268953208558,2.3954953022964247,-8.266704281020465,0.4757158902683123,1.5548429447334542,9.701822241639466,-0.0014731565672475347,-0.001944059852109655,0.004363323129985824,23.69232948257111,-49.44569393475323,7.5625
1772306508.400136,91.00330868083479,2.382245998446403,-8.282911327510671,0.4858302549989292,1.5577901909650431,9.697867569747972,-0.0008718045978162861,0.0012727059107704517,-0.002181661564992912,23.69232948257111,-49.44569393475323,7.5625
1772306508.4202998,91.00330868083479,2.382245998446403,-8.282911327510671,0.4858302549989292,1.5577901909650431,9.697867569747972,-0.0008718045978162861,0.0012727059107704517,-0.002181661564992912,23.69232948257111,-49.44569393475323,7.5625
1772306508.4522223,91.00285426557699,2.312847734497397,-8.334961616777123,0.5007624797102616,1.5263544761788843,9.721340583862577,0.0023449611650638207,0.000671353941339203,0.00545415391248228,23.1428715184064,-48.643566485019726,7.1875
1772306508.4796243,91.00285426557699,2.312847734497397,-8.334961616777123,0.5007624797102616,1.5263544761788843,9.721340583862577,0.0023449611650638207,0.000671353941339203,0.00545415391248228,23.1428715184064,-48.643566485019726,7.1875
1772306508.5088224,90.99944684516792,2.2871178856382377,-8.377679955874461,0.5216126750253223,1.5318551060211865,9.717547031877924,0.001272705910770452,0.000871804597816286,-0.001090830782496456,22.6324267776669,-48.99322155312454,7.5625
1772306508.5469787,90.99674863123462,2.2405094479536167,-8.411837806421875,0.5354882470955524,1.5355157137351774,9.71502246540889,-0.001072255254293369,0.00020045065647708295,0.001090830782496456,22.6324267776669,-48.99322155312454,7.5625
1772306508.5902634,90.99674863123462,2.2405094479536167,-8.411837806421875,0.5354882470955524,1.5355157137351774,9.71502246540889,-0.001072255254293369,0.00020045065647708295,0.001090830782496456,22.6324267776669,-48.99322155312454,7.5625
1772306508.6216807,90.99614176509479,2.16865155059415,-8.488923272786598,0.5271178467577883,1.5338036352632547,9.721140684174458,0.0,0.0,0.0,23.738269389038166,-49.19995113222628,8.0
1772306508.6527703,90.99288465943064,2.14978082159194,-8.501192668464652,0.5142907484390113,1.531250868001378,9.724104224283144,0.0006013519694312489,0.003216765762880107,-0.002181661564992912,23.738269389038166,-49.19995113222628,8.0
1772306508.7126024,90.99402198776743,2.127701149508783,-8.52819864143957,0.5123307548017211,1.5283226369532292,9.726076427120562,-0.0006713539413392031,0.0023449611650638207,0.003272492347489368,23.43109088587948,-49.14252624914246,7.5625
1772306508.7410126,2.0038651291961536,-40.01340054841441,139.43617979371948,0.5089676453794273,1.5335649253827737,9.724043794370596,0.0016736072237246177,0.003016315106403024,-0.001090830782496456,23.43109088587948,-49.14252624914246,7.5625
1772306508.8010314,90.99262798539303,2.0734996330090016,-8.58367670376405,0.5100176821301741,1.5364389132966123,9.722691099981489,0.00020045065647708295,0.001072255254293369,0.002181661564992912,23.568910605280642,-48.40529784156163,6.375
1772306508.8225818,90.9881634789503,2.05535158546017,-8.605045439696605,0.5094870769064682,1.5317752231429442,9.721790896976124,0.002144510508586738,-0.0004009013129541659,-0.004363323129985824,23.568910605280642,-48.40529784156163,6.375
1772306508.847585,90.9881634789503,2.05535158546017,-8.605045439696605,0.5094870769064682,1.5317752231429442,9.721790896976124,0.002144510508586738,-0.0004009013129541659,-0.004363323129985824,23.568910605280642,-48.40529784156163,6.375
1772306508.872214,90.98959235433445,2.0322926065410867,-8.622228758007918,0.5091339650573407,1.5286715894425107,9.721191821931981,0.0,0.0,0.001090830782496456,24.536933497250743,-49.34925582824421,7.1875
1772306508.8925066,90.99006644429315,2.0234619015250934,-8.633029467706534,0.5088989730662641,1.5266061558847326,9.72079314418221,0.0016736072237246177,0.003016315106403024,0.0,24.536933497250743,-49.34925582824421,7.1875
1772306508.9087782,90.99006644429315,2.0234619015250934,-8.633029467706534,0.5088989730662641,1.5266061558847326,9.72079314418221,0.0016736072237246177,0.003016315106403024,0.0,24.536933497250743,-49.34925582824421,7.1875
1772306508.9244335,90.98684862512361,2.004580573181047,-8.645298264014437,0.5060691364941701,1.5291344779031495,9.730563163715217,0.001072255254293369,-0.00020045065647708295,-0.003272492347489368,24.536933497250743,-49.34925582824421,7.1875
1772306508.9411232,90.98684862512361,2.004580573181047,-8.645298264014437,0.5060691364941701,1.5291344779031495,9.730563163715217,0.001072255254293369,-0.00020045065647708295,-0.003272492347489368,24.536933497250743,-49.34925582824421,7.1875
1772306508.9608133,90.98780732083917,1.9869187060239646,-8.666899595488575,0.5029326469142615,1.531936779542622,9.72801145687855,-0.0023449611650638207,-0.000671353941339203,0.0,22.470542152978222,-47.818469082052694,7.5625
1772306508.993497,90.98853069355164,1.97367281270217,-8.683100307613804,0.49881046458535305,1.5332966448763312,9.721986423351519,-0.0004009013129541659,-0.002144510508586738,-0.002181661564992912,22.470542152978222,-47.818469082052694,7.5625
1772306509.0102868,90.98853069355164,1.97367281270217,-8.683100307613804,0.49881046458535305,1.5332966448763312,9.721986423351519,-0.0004009013129541659,-0.002144510508586738,-0.002181661564992912,22.470542152978222,-47.818469082052694,7.5625
1772306509.0278435,90.98925891788174,1.9638605929631494,-8.684082718501527,0.4960671982932583,1.5342016200652238,9.717976830843314,0.0,0.0,-0.001090830782496456,22.03702890703514,-48.436836905917986,8.0
1772306509.0546536,90.98998751042204,1.9506153210277826,-8.700283285497441,0.49362688874433713,1.531515722441307,9.721998715233825,-0.00020045065647708295,-0.001072255254293369,0.002181661564992912,22.03702890703514,-48.436836905917986,8.0
1772306509.0678234,90.98581347917616,1.9459565384565736,-8.706169828634069,0.492002889999574,1.529728287576033,9.728020346075638,0.0,0.0,-0.001090830782496456,22.03702890703514,-48.436836905917986,8.0
1772306509.0824776,90.98581347917616,1.9459565384565736,-8.706169828634069,0.492002889999574,1.529728287576033,9.728020346075638,0.0,0.0,-0.001090830782496456,22.03702890703514,-48.436836905917986,8.0
1772306509.0955472,90.98654722483137,1.9327106087599293,-8.722370318926089,0.495439678430727,1.5345003701701032,9.73537278584216,0.00020045065647708295,0.001072255254293369,0.0,22.03702890703514,-48.436836905917986,7.1875
1772306509.107711,90.98727918047025,1.92289832009804,-8.72335275304148,0.497726822740217,1.5376761378288015,9.740265752374645,-0.00020045065647708295,-0.001072255254293369,-0.002181661564992912,22.03702890703514,-48.436836905917986,7.1875
1772306509.1219184,90.98727918047025,1.92289832009804,-8.72335275304148,0.497726822740217,1.5376761378288015,9.740265752374645,-0.00020045065647708295,-0.001072255254293369,-0.002181661564992912,22.03702890703514,-48.436836905917986,7.1875
1772306509.1349614,90.98752508786399,1.9184831704539027,-8.728752896266867,0.5006929508045229,1.529310433745523,9.73348663182204,0.0,0.0,-0.001090830782496456,22.03702890703514,-48.436836905917986,7.1875
1772306509.1498697,90.98801814544885,1.9096530190467624,-8.73955310213379,0.5026668758974969,1.523743151129139,9.728975202822019,0.001072255254293369,-0.00020045065647708295,0.0,22.6324267776669,-48.99322155312454,7.1875
1772306509.1735494,90.98801814544885,1.9096530190467624,-8.73955310213379,0.5026668758974969,1.523743151129139,9.728975202822019,0.001072255254293369,-0.00020045065647708295,0.0,22.6324267776669,-48.99322155312454,7.1875
1772306509.2080402,-69.3471319204062,5.266829195238784,2.132506211379806,0.5006923524937936,1.5206528832143817,9.725972897218469,0.001272705910770452,0.000871804597816286,0.0,22.6324267776669,-48.99322155312454,7.1875
1772306509.2254431,90.98974483066223,1.8821814554685021,-8.76213598596859,0.5006077221771496,1.5251726414434443,9.723974896377257,-0.00020045065647708295,-0.001072255254293369,0.002181661564992912,23.611934646253765,-49.87574383917539,7.1875
1772306509.2427788,90.98999413455972,1.8777667149654953,-8.767535975938511,0.503839550149695,1.5275657935800533,9.725990360843882,0.001072255254293369,-0.00020045065647708295,0.001090830782496456,23.611934646253765,-49.87574383917539,7.1875
1772306509.2563763,90.98999413455972,1.8777667149654953,-8.767535975938511,0.503839550149695,1.5275657935800533,9.725990360843882,0.001072255254293369,-0.00020045065647708295,0.001090830782496456,23.611934646253765,-49.87574383917539,7.1875
1772306509.2729073,90.98582661906393,1.8731022021839534,-8.773422702990418,0.5047609026118912,1.5225821125879264,9.723986518224889,0.0008718045978162861,-0.0012727059107704517,0.001090830782496456,23.611934646253765,-49.87574383917539,7.1875
1772306509.3212428,90.98092764751799,1.8637854874397861,-8.783971887292722,0.5020859038804119,1.519880225034855,9.722652983346338,0.001072255254293369,-0.00020045065647708295,0.0,22.34420741019382,-48.4942617890018,8.6875
1772306509.366049,90.9826741175986,1.836314111663909,-8.806552301418026,0.5021923413632002,1.5333146733700935,9.721174941012633,-0.0014731565672475347,-0.001944059852109655,-0.001090830782496456,23.738269389038166,-49.19995113222628,6.375
1772306509.4293246,90.9831809348506,1.8274846129976017,-8.81735123735755,0.5022206444895905,1.5368870698534962,9.714091686704318,0.001072255254293369,-0.00020045065647708295,0.0,23.738269389038166,-49.19995113222628,6.375
1772306509.4609184,90.9831809348506,1.8274846129976017,-8.81735123735755,0.5022206444895905,1.5368870698534962,9.714091686704318,0.001072255254293369,-0.00020045065647708295,0.0,23.738269389038166,-49.19995113222628,6.375
1772306509.4896984,90.98368940844905,1.8186553166582626,-8.82815006797325,0.5016247834282122,1.5359763113040277,9.722758306916546,-0.00020045065647708295,-0.001072255254293369,-0.001090830782496456,22.77024649706806,-48.2559931455437,7.1875
1772306509.5213194,90.97978263214,1.8095708408599316,-8.839436182741462,0.501228244548069,1.535370211663196,9.728525845855293,0.0015431585391554891,-0.0036176670758342726,0.001090830782496456,22.77024649706806,-48.2559931455437,7.1875
1772306509.5770757,90.9810385606695,1.7909296129801104,-8.851217407308496,0.5009643523529633,1.534966859122799,9.732364078591397,0.0006713539413392031,-0.0023449611650638207,0.0,22.6324267776669,-48.99322155312454,6.75
1772306509.6005075,90.98129563318152,1.7865148942225084,-8.856616796599253,0.4975005865421,1.5353131289887323,9.731573267894086,-0.00020045065647708295,-0.001072255254293369,0.0,22.6324267776669,-48.99322155312454,6.75
1772306509.6300435,90.98155311973453,1.782100226637022,-8.862016159799852,0.4951954890877698,1.5355435677164233,9.731046992208961,-0.001272705910770452,-0.000871804597816286,0.001090830782496456,22.6324267776669,-48.99322155312454,6.75
1772306509.6557178,90.98155311973453,1.782100226637022,-8.862016159799852,0.4936614724815388,1.535696922115532,9.727351649912075,0.0008718045978162861,-0.0012727059107704517,-0.001090830782496456,22.26381257387648,-48.92431169342396,8.0
1772306509.6745405,90.98155311973453,1.782100226637022,-8.862016159799852,0.4965434465448943,1.5384724297821233,9.728237552600495,0.0008718045978162861,-0.0012727059107704517,0.001090830782496456,22.26381257387648,-48.92431169342396,8.0
1772306509.7147799,90.98155311973453,1.782100226637022,-8.862016159799852,0.4965434465448943,1.5384724297821233,9.728237552600495,0.0008718045978162861,-0.0012727059107704517,0.001090830782496456,22.26381257387648,-48.92431169342396,8.0
1772306509.7393167,90.98155311973453,1.782100226637022,-8.862016159799852,0.4984613680902976,1.5403194991297877,9.728827110943458,-0.0010022532823854146,-0.0053612762714668446,0.0,23.06247668208906,-49.07361638944188,6.75
1772306509.7608738,90.98155311973453,1.782100226637022,-8.862016159799852,0.4997377234541761,1.5415487031475419,9.729219455434901,0.001072255254293369,-0.00020045065647708295,0.001090830782496456,23.06247668208906,-49.07361638944188,6.75
1772306509.7847786,90.98155311973453,1.782100226637022,-8.862016159799852,0.4997377234541761,1.5415487031475419,9.729219455434901,0.001072255254293369,-0.00020045065647708295,0.001090830782496456,23.06247668208906,-49.07361638944188,6.75
1772306509.8170745,90.98155311973453,1.782100226637022,-8.862016159799852,0.4999724272151892,1.539078576187359,9.726135444603862,0.0006713539413392031,-0.0023449611650638207,-0.001090830782496456,23.385150979412426,-49.38826905166941,6.6875
1772306509.8490753,90.98155311973453,1.782100226637022,-8.862016159799852,0.4968404714434411,1.5380494307643082,9.724083069846463,0.0,0.0,0.0,23.385150979412426,-49.38826905166941,6.6875
1772306509.8717916,90.98155311973453,1.782100226637022,-8.862016159799852,0.4968404714434411,1.5380494307643082,9.724083069846463,0.0,0.0,0.0,23.385150979412426,-49.38826905166941,6.6875
1772306509.916217,90.98155311973453,1.782100226637022,-8.862016159799852,0.50133248686936,1.5361351530299265,9.72940746078658,-0.0004709032848621201,0.00341721641935719,0.001090830782496456,22.6324267776669,-48.99322155312454,7.1875
1772306509.9348269,90.98155311973453,1.782100226637022,-8.862016159799852,0.5049365694320335,1.5381493710844685,9.732950783479886,0.0017436091956325721,-0.0025454118215409035,-0.002181661564992912,22.6324267776669,-48.99322155312454,7.1875
1772306509.9533267,90.98155311973453,1.782100226637022,-8.862016159799852,0.5073350461172523,1.539489810699476,9.731963713443452,-0.0004009013129541659,-0.002144510508586738,-0.002181661564992912,22.6324267776669,-48.99322155312454,7.1875
1772306509.9843237,90.98155311973453,1.782100226637022,-8.862016159799852,0.5073350461172523,1.539489810699476,9.731963713443452,-0.0004009013129541659,-0.002144510508586738,-0.002181661564992912,22.6324267776669,-48.99322155312454,7.1875
1772306510.2297783,90.98155311973453,1.782100226637022,-8.862016159799852,0.5073027262312015,1.5369223165178396,9.742988435901436,0.0014731565672475347,0.001944059852109655,0.003272492347489368,22.712821613984243,-48.56317164870238,6.6875
1772306510.3310797,90.98155311973453,1.782100226637022,-8.862016159799852,0.5082950005595709,1.5353850710895927,9.73864365900207,0.0008718045978162861,-0.0012727059107704517,0.0,23.511485722196824,-48.71247634472031,8.0
1772306510.3644783,90.98155311973453,1.782100226637022,-8.862016159799852,0.5089553480406702,1.534362051429251,9.732407146802561,-0.0004009013129541659,-0.002144510508586738,-0.001090830782496456,23.511485722196824,-48.71247634472031,8.0
1772306510.384829,90.98155311973453,1.782100226637022,-8.862016159799852,0.5093948019127772,1.5336812432731721,9.731601929307514,0.0004009013129541659,0.002144510508586738,-0.002181661564992912,23.81866422535551,-48.76990122780413,6.375
1772306510.4282587,90.98155311973453,1.782100226637022,-8.862016159799852,0.5024962600740396,1.5311694174991863,9.731066066059428,0.00020045065647708295,0.001072255254293369,-0.001090830782496456,23.81866422535551,-48.76990122780413,6.375
1772306510.470949,90.98155311973453,1.782100226637022,-8.862016159799852,0.5024962600740396,1.5311694174991863,9.731066066059428,0.00020045065647708295,0.001072255254293369,-0.001090830782496456,23.81866422535551,-48.76990122780413,6.375
1772306510.5251355,90.98155311973453,1.782100226637022,-8.862016159799852,0.5058029123919452,1.5263378594789079,9.733817246120498,-0.00020045065647708295,-0.001072255254293369,0.0,22.6324267776669,-48.99322155312454,7.5625
1772306510.5938385,90.98155311973453,1.782100226637022,-8.862016159799852,0.5066821947277398,1.5250530846634265,9.732540334651759,-0.0008718045978162861,0.0012727059107704517,0.002181661564992912,23.568910605280642,-48.40529784156163,7.1875
1772306510.6910222,90.98155311973453,1.782100226637022,-8.862016159799852,0.5084967402516326,1.5307743783813779,9.731690564333348,0.0008718045978162861,-0.0012727059107704517,0.0,23.568910605280642,-48.40529784156163,7.1875
1772306510.732905,90.98155311973453,1.782100226637022,-8.862016159799852,0.5084967402516326,1.5307743783813779,9.731690564333348,0.0008718045978162861,-0.0012727059107704517,0.0,23.568910605280642,-48.40529784156163,7.1875
1772306510.7656758,90.98155311973453,1.782100226637022,-8.862016159799852,0.5013343208283375,1.5365658960718773,9.734093821032046,0.0008718045978162861,-0.0012727059107704517,0.001090830782496456,23.69232948257111,-49.44569393475323,6.75
1772306510.8136015,90.98155311973453,1.782100226637022,-8.862016159799852,0.5013343208283375,1.5365658960718773,9.734093821032046,0.0008718045978162861,-0.0012727059107704517,0.001090830782496456,23.69232948257111,-49.44569393475323,6.75
1772306510.8455145,90.98155311973453,1.782100226637022,-8.862016159799852,0.4977467964296428,1.536377270215931,9.736069503873168,0.0014731565672475347,0.001944059852109655,0.0,22.586486871199845,-49.23896435565149,7.5625
1772306510.8589706,90.98155311973453,1.782100226637022,-8.862016159799852,0.4977467964296428,1.536377270215931,9.736069503873168,0.0014731565672475347,0.001944059852109655,0.0,22.586486871199845,-49.23896435565149,7.5625
1772306510.9454577,90.98155311973453,1.782100226637022,-8.862016159799852,0.4970586612823966,1.5355535075920783,9.72711678766446,0.001072255254293369,-0.00020045065647708295,0.0,23.06247668208906,-49.07361638944188,8.0
1772306510.9771862,90.98155311973453,1.782100226637022,-8.862016159799852,0.49818954126695536,1.5350888405159206,9.72808125439829,-0.001072255254293369,0.00020045065647708295,-0.002181661564992912,23.06247668208906,-49.07361638944188,8.0
1772306511.0251002,90.98155311973453,1.782100226637022,-8.862016159799852,0.49832743278809755,1.5314914612645196,9.728723096235855,0.0006013519694312489,0.003216765762880107,0.003272492347489368,22.137477831092077,-49.60010440037306,7.1875
1772306511.0496886,90.98155311973453,1.782100226637022,-8.862016159799852,0.501707346557958,1.528482749082247,9.732495346516231,0.0,0.0,-0.001090830782496456,22.137477831092077,-49.60010440037306,7.1875
1772306511.0883486,90.98155311973453,1.782100226637022,-8.862016159799852,0.5045713378915138,1.5297686332373515,9.728315513524386,0.001272705910770452,0.000871804597816286,-0.001090830782496456,22.137477831092077,-49.60010440037306,7.1875
1772306511.1684687,90.98155311973453,1.782100226637022,-8.862016159799852,0.5064772921311158,1.5306243747783064,9.718843657945468,0.0006713539413392031,-0.0023449611650638207,-0.002181661564992912,23.511485722196824,-48.71247634472031,7.1875
1772306511.246974,90.98155311973453,1.782100226637022,-8.862016159799852,0.5044575348837774,1.5318085576903766,9.712540243865257,-0.001072255254293369,0.00020045065647708295,0.001090830782496456,23.511485722196824,-48.71247634472031,7.1875
1772306511.2770743,90.98155311973453,1.782100226637022,-8.862016159799852,0.5044575348837774,1.5318085576903766,9.712540243865257,-0.001072255254293369,0.00020045065647708295,0.001090830782496456,23.511485722196824,-48.71247634472031,7.1875
1772306511.333826,90.98155311973453,1.782100226637022,-8.862016159799852,0.503728105473665,1.535884766693059,9.715035615623265,-0.0014731565672475347,-0.001944059852109655,0.0,23.20029640149022,-48.336387981861044,7.1875
1772306511.363668,90.98155311973453,1.782100226637022,-8.862016159799852,0.5032426783494955,1.5385974382501062,9.71669625765309,0.001072255254293369,-0.00020045065647708295,0.0,23.20029640149022,-48.336387981861044,7.1875
1772306511.4004395,90.98155311973453,1.782100226637022,-8.862016159799852,0.5032426783494955,1.5385974382501062,9.71669625765309,0.001072255254293369,-0.00020045065647708295,0.0,23.20029640149022,-48.336387981861044,7.1875
1772306511.4217367,90.98155311973453,1.782100226637022,-8.862016159799852,0.5023049355451127,1.5371145423659047,9.717801396373352,0.001072255254293369,-0.00020045065647708295,0.0,22.712821613984243,-48.56317164870238,8.0
1772306511.447972,90.98155311973453,1.782100226637022,-8.862016159799852,0.5023049355451127,1.5371145423659047,9.717801396373352,0.001072255254293369,-0.00020045065647708295,0.0,22.712821613984243,-48.56317164870238,8.0
1772306511.4882371,90.98155311973453,1.782100226637022,-8.862016159799852,0.5016808781840694,1.536127691720001,9.721881965553797,-0.00020045065647708295,-0.001072255254293369,-0.001090830782496456,22.712821613984243,-48.56317164870238,8.0
1772306511.574496,90.98155311973453,1.782100226637022,-8.862016159799852,0.5006508785056482,1.5321828051361068,9.724597538760438,-0.001072255254293369,0.00020045065647708295,0.001090830782496456,23.20029640149022,-48.336387981861044,7.1875
1772306511.6034567,90.98155311973453,1.782100226637022,-8.862016159799852,0.5005801217013335,1.532845675684685,9.726404722394518,0.001072255254293369,-0.00020045065647708295,-0.001090830782496456,23.20029640149022,-48.336387981861044,7.1875
1772306511.6240666,90.98155311973453,1.782100226637022,-8.862016159799852,0.5005330338384675,1.5332868086300147,9.724262271208115,0.001072255254293369,-0.00020045065647708295,-0.001090830782496456,23.43109088587948,-49.14252624914246,6.0
1772306511.6467247,90.98155311973453,1.782100226637022,-8.862016159799852,0.500501697391736,1.5335803776773538,9.726181605583632,0.0006713539413392031,-0.0023449611650638207,-0.002181661564992912,23.43109088587948,-49.14252624914246,6.0
1772306511.6799502,90.98155311973453,1.782100226637022,-8.862016159799852,0.5004808433364872,1.5337757445989768,9.727458901170168,0.0008718045978162861,-0.0012727059107704517,0.001090830782496456,23.43109088587948,-49.14252624914246,6.0
1772306511.7333817,90.98155311973453,1.782100226637022,-8.862016159799852,0.49985226871984983,1.530617610600036,9.72830892711468,0.0014731565672475347,0.001944059852109655,0.0,22.586486871199845,-49.23896435565149,7.1875
1772306511.7772253,90.98155311973453,1.782100226637022,-8.862016159799852,0.5027221078370057,1.5279012112265846,9.728874609885342,-0.0004709032848621201,0.00341721641935719,0.001090830782496456,22.586486871199845,-49.23896435565149,7.1875
1772306511.8073416,90.98155311973453,1.782100226637022,-8.862016159799852,0.5027221078370057,1.5279012112265846,9.728874609885342,-0.0004709032848621201,0.00341721641935719,0.001090830782496456,22.586486871199845,-49.23896435565149,7.1875
1772306511.8356626,90.98155311973453,1.782100226637022,-8.862016159799852,0.50134380520838,1.5267081742635467,9.725905953742807,-0.001272705910770452,-0.000871804597816286,0.0,22.09445379011896,-48.1296584027593,6.375
1772306511.8609986,90.98155311973453,1.782100226637022,-8.862016159799852,0.5004265602056787,1.5259142214917407,9.72727545794933,0.0014731565672475347,0.001944059852109655,0.001090830782496456,22.09445379011896,-48.1296584027593,6.375
1772306511.9003024,90.98155311973453,1.782100226637022,-8.862016159799852,0.499816143902679,1.5253858547911374,9.728186847700409,0.001272705910770452,0.000871804597816286,-0.001090830782496456,23.016536775622004,-49.31935919196883,7.1875
1772306512.0384197,90.98155311973453,1.782100226637022,-8.862016159799852,0.5000246151476541,1.5283223811570186,9.728793367398861,0.001272705910770452,0.000871804597816286,0.0,23.016536775622004,-49.31935919196883,7.1875
1772306512.091087,90.98155311973453,1.782100226637022,-8.862016159799852,0.5000246151476541,1.5283223811570186,9.728793367398861,0.001272705910770452,0.000871804597816286,0.0,23.016536775622004,-49.31935919196883,7.1875
1772306512.1861937,90.98155311973453,1.782100226637022,-8.862016159799852,0.49477930261410114,1.5326008919999312,9.732810723833301,-0.00020045065647708295,-0.001072255254293369,-0.001090830782496456,23.738269389038166,-49.19995113222628,6.375
1772306512.264992,90.98155311973453,1.782100226637022,-8.862016159799852,0.4966726535353093,1.533123907822224,9.73521561702054,0.0004009013129541659,0.002144510508586738,0.001090830782496456,23.269206261190803,-47.96777377807062,7.1875
1772306512.3439994,90.98155311973453,1.782100226637022,-8.862016159799852,0.49877117593552184,1.533703599841518,9.732309868379714,0.0,0.0,-0.001090830782496456,23.06247668208906,-49.07361638944188,8.375
1772306512.3948119,90.98155311973453,1.782100226637022,-8.862016159799852,0.49932920063856806,1.5338577475727464,9.73153719160378,-0.0006713539413392031,0.0023449611650638207,0.0,23.06247668208906,-49.07361638944188,8.375
1772306512.4792144,90.98155311973453,1.782100226637022,-8.862016159799852,0.49970055984490086,1.533960331165936,9.73102298384076,0.0004009013129541659,0.002144510508586738,0.001090830782496456,24.743663076352487,-48.243413216872945,6.75
1772306512.5238838,90.98155311973453,1.782100226637022,-8.862016159799852,0.49933299877253684,1.5307404508983802,9.730680784318547,0.0,0.0,0.0,24.743663076352487,-48.243413216872945,6.75
1772306512.5496912,90.98155311973453,1.782100226637022,-8.862016159799852,0.49251209397902584,1.5298270495003898,9.730453054359135,-0.0004009013129541659,-0.002144510508586738,0.0,23.94499896813991,-48.094108520855016,6.375
1772306512.58947,90.98155311973453,1.782100226637022,-8.862016159799852,0.4945491550392222,1.5279897981217407,9.730301502615056,-0.0004009013129541659,-0.002144510508586738,-0.002181661564992912,23.94499896813991,-48.094108520855016,6.375
1772306512.699503,90.98155311973453,1.782100226637022,-8.862016159799852,0.49323134439225486,1.5306699728314064,9.733545758329635,0.0,0.0,-0.001090830782496456,22.586486871199845,-49.23896435565149,6.75
1772306512.8258777,90.98155311973453,1.782100226637022,-8.862016159799852,0.4923543561276075,1.5324535991611754,9.735704774266976,0.0,0.0,0.0,22.586486871199845,-49.23896435565149,6.75
1772306512.857856,90.98155311973453,1.782100226637022,-8.862016159799852,0.4917707302340855,1.5336405825592252,9.737141575255487,-0.001072255254293369,0.00020045065647708295,-0.001090830782496456,23.20029640149022,-48.336387981861044,6.75
1772306512.938488,90.98155311973453,1.782100226637022,-8.862016159799852,0.4940557857485401,1.5305276617724402,9.734752638555904,0.0014731565672475347,0.001944059852109655,0.001090830782496456,23.20029640149022,-48.336387981861044,6.75
1772306513.003649,90.98155311973453,1.782100226637022,-8.862016159799852,0.49619116114349143,1.531744196265328,9.736507939575821,-0.00020045065647708295,-0.001072255254293369,0.002181661564992912,23.20029640149022,-48.336387981861044,7.5625
1772306513.084978,90.98155311973453,1.782100226637022,-8.862016159799852,0.49410533032196197,1.5395927042732853,9.732882206224899,0.0008718045978162861,-0.0012727059107704517,-0.001090830782496456,23.81866422535551,-48.76990122780413,6.375
1772306513.1519203,90.98155311973453,1.782100226637022,-8.862016159799852,0.49410533032196197,1.5395927042732853,9.732882206224899,0.0008718045978162861,-0.0012727059107704517,-0.001090830782496456,23.81866422535551,-48.76990122780413,6.375
1772306513.20601,90.98155311973453,1.782100226637022,-8.862016159799852,0.499512281006544,1.5371621843106562,9.731918076046316,0.001072255254293369,-0.00020045065647708295,-0.14180800172453928,23.81866422535551,-48.76990122780413,6.375
1772306513.2663078,90.98155311973453,1.782100226637022,-8.862016159799852,0.5031105462875366,1.5355447004262135,9.73127645818251,-0.0008718045978162861,0.0012727059107704517,0.003272492347489368,23.06247668208906,-49.07361638944188,8.375
1772306513.2894206,90.98155311973453,1.782100226637022,-8.862016159799852,0.504890455160956,1.531180134466706,9.72081413353953,0.0017436091956325721,-0.0025454118215409035,-0.001090830782496456,23.06247668208906,-49.07361638944188,8.375
1772306513.3518043,90.98155311973453,1.782100226637022,-8.862016159799852,0.5093631131362211,1.527660868100226,9.71385157336145,-0.001072255254293369,0.00020045065647708295,-0.002181661564992912,23.1428715184064,-48.643566485019726,8.0
1772306513.4339747,90.98155311973453,1.782100226637022,-8.862016159799852,0.5123396170558967,1.5253188356461147,9.709218067339833,0.001272705910770452,0.000871804597816286,0.001090830782496456,23.1428715184064,-48.643566485019726,8.0
1772306513.477258,90.98155311973453,1.782100226637022,-8.862016159799852,0.5123396170558967,1.5253188356461147,9.709218067339833,0.001272705910770452,0.000871804597816286,0.001090830782496456,23.1428715184064,-48.643566485019726,8.0
1772306513.5104775,90.98155311973453,1.782100226637022,-8.862016159799852,0.5077441501589345,1.524989632161769,9.71282474425674,-0.00020045065647708295,-0.001072255254293369,0.001090830782496456,22.712821613984243,-48.56317164870238,6.375
1772306513.5550659,90.98155311973453,1.782100226637022,-8.862016159799852,0.5013977697708455,1.5253852473962055,9.715224947455718,0.001944059852109655,-0.0014731565672475347,-0.001090830782496456,22.712821613984243,-48.56317164870238,6.375
1772306513.5872917,90.98155311973453,1.782100226637022,-8.862016159799852,0.49717432451628646,1.5256485249154113,9.720167367579933,0.0,0.0,0.0,23.511485722196824,-48.71247634472031,6.6875
1772306513.6214297,90.98155311973453,1.782100226637022,-8.862016159799852,0.49717432451628646,1.5256485249154113,9.720167367579933,0.0,0.0,0.0,23.511485722196824,-48.71247634472031,6.6875
1772306513.646886,90.98155311973453,1.782100226637022,-8.862016159799852,0.49436366887835215,1.5258237331634399,9.723456492962146,0.0,0.0,0.001090830782496456,23.511485722196824,-48.71247634472031,6.6875
1772306513.6745436,90.98155311973453,1.782100226637022,-8.862016159799852,0.495781357451277,1.5253256358194742,9.725645369162072,0.0006713539413392031,-0.0023449611650638207,0.0,23.637820464981225,-48.036683637771205,6.375
1772306513.6977684,91.0179254857686,1.2174707440044679,-9.552927831976373,0.4967248133599395,1.524994157601177,9.723756930114453,0.0006713539413392031,-0.0023449611650638207,-0.002181661564992912,23.637820464981225,-48.036683637771205,6.375
1772306513.7416143,91.0179254857686,1.2174707440044679,-9.552927831976373,0.4967248133599395,1.524994157601177,9.723756930114453,0.0006713539413392031,-0.0023449611650638207,-0.002181661564992912,23.637820464981225,-48.036683637771205,6.375
1772306513.7640526,90.98155311973453,1.782100226637022,-8.862016159799852,0.5012555177067752,1.5274470145768195,9.722500195023509,0.00020045065647708295,0.001072255254293369,0.001090830782496456,23.06247668208906,-49.07361638944188,7.1875
1772306513.782615,90.98155311973453,1.782100226637022,-8.862016159799852,0.5042706508383106,1.5290793634939017,9.721663851859137,-0.0014731565672475347,-0.001944059852109655,-0.001090830782496456,23.06247668208906,-49.07361638944188,7.1875
1772306513.800666,90.98155311973453,1.782100226637022,-8.862016159799852,0.502989039753214,1.5307803699395124,9.721107274825814,0.0,0.0,0.001090830782496456,23.06247668208906,-49.07361638944188,7.1875
1772306513.841579,90.98155311973453,1.782100226637022,-8.862016159799852,0.502136141892616,1.531912370727579,9.720736879027509,-0.0004009013129541659,-0.002144510508586738,0.0,22.839156356768644,-47.887378941753276,7.5625
1772306513.8626523,90.98155311973453,1.782100226637022,-8.862016159799852,0.49766570291516765,1.5299922525796952,9.723835496468649,-0.00020045065647708295,-0.001072255254293369,-0.001090830782496456,22.839156356768644,-47.887378941753276,7.5625
1772306513.9081004,90.98155311973453,1.782100226637022,-8.862016159799852,0.49766570291516765,1.5299922525796952,9.723835496468649,-0.00020045065647708295,-0.001072255254293369,-0.001090830782496456,22.839156356768644,-47.887378941753276,7.5625
1772306513.9310002,90.98155311973453,1.782100226637022,-8.862016159799852,0.4979788242166407,1.5280997389255793,9.725897591761901,0.0,0.0,0.0,23.94499896813991,-48.094108520855016,7.5625
1772306513.9549606,90.98155311973453,1.782100226637022,-8.862016159799852,0.4988018994208013,1.5301284407324172,9.727269893144449,0.0,0.0,0.001090830782496456,23.94499896813991,-48.094108520855016,7.5625
1772306513.9841497,90.98155311973453,1.782100226637022,-8.862016159799852,0.49934964677481763,1.5314785191227838,9.728183144384923,0.00020045065647708295,0.001072255254293369,0.003272492347489368,23.94499896813991,-48.094108520855016,7.5625
1772306514.0324945,90.98155311973453,1.782100226637022,-8.862016159799852,0.49934964677481763,1.5314785191227838,9.728183144384923,0.00020045065647708295,0.001072255254293369,0.003272492347489368,23.94499896813991,-48.094108520855016,7.5625
1772306514.0570452,90.98155311973453,1.782100226637022,-8.862016159799852,0.49581132154146285,1.5297035291831438,9.728790902883773,0.00020045065647708295,0.001072255254293369,0.0,22.712821613984243,-48.56317164870238,7.1875
1772306514.0859854,90.98155311973453,1.782100226637022,-8.862016159799852,0.4934566056243479,1.5285222932062503,9.729195359375652,0.0004009013129541659,0.002144510508586738,0.0,22.712821613984243,-48.56317164870238,7.1875
1772306514.113745,90.98155311973453,1.782100226637022,-8.862016159799852,0.4934566056243479,1.5285222932062503,9.729195359375652,0.0004009013129541659,0.002144510508586738,0.0,22.712821613984243,-48.56317164870238,7.1875
1772306514.1357808,90.98155311973453,1.782100226637022,-8.862016159799852,0.49846586549118715,1.5265068009072493,9.722774297238283,0.0014731565672475347,0.001944059852109655,0.002181661564992912,23.385150979412426,-49.38826905166941,5.5625
1772306514.1512053,90.98155311973453,1.782100226637022,-8.862016159799852,0.49846586549118715,1.5265068009072493,9.722774297238283,0.0014731565672475347,0.001944059852109655,0.002181661564992912,23.385150979412426,-49.38826905166941,5.5625
1772306514.1933641,90.98155311973453,1.782100226637022,-8.862016159799852,0.5017994719754695,1.5251655132967885,9.725191375528466,0.0014731565672475347,0.001944059852109655,0.0,23.385150979412426,-49.38826905166941,5.5625
1772306514.222645,90.98155311973453,1.782100226637022,-8.862016159799852,0.5007298013490454,1.5248875978510155,9.72679991413005,0.00020045065647708295,0.001072255254293369,-0.001090830782496456,22.712821613984243,-48.56317164870238,7.1875
1772306514.2645824,90.98155311973453,1.782100226637022,-8.862016159799852,0.5000179474961641,1.5247026482263724,9.72787037860085,0.0014731565672475347,0.001944059852109655,0.0,22.712821613984243,-48.56317164870238,7.1875
1772306514.293307,90.98155311973453,1.782100226637022,-8.862016159799852,0.500773609660649,1.531155863322974,9.741963207577573,0.0004009013129541659,0.002144510508586738,0.0,23.738269389038166,-49.19995113222628,6.75
1772306514.3236175,90.98155311973453,1.782100226637022,-8.862016159799852,0.5012764943898141,1.5354504058826264,9.73461626929777,0.0006713539413392031,-0.0023449611650638207,0.001090830782496456,23.738269389038166,-49.19995113222628,6.75
1772306514.338737,90.98155311973453,1.782100226637022,-8.862016159799852,0.501611158559483,1.5383083759828915,9.743107410772518,0.00020045065647708295,0.001072255254293369,0.0,23.738269389038166,-49.19995113222628,6.75
1772306514.3628433,90.98155311973453,1.782100226637022,-8.862016159799852,0.501611158559483,1.5383083759828915,9.743107410772518,0.00020045065647708295,0.001072255254293369,0.0,23.738269389038166,-49.19995113222628,6.75
1772306514.389889,90.98155311973453,1.782100226637022,-8.862016159799852,0.5006044808743052,1.5336340261532209,9.728687500327782,0.001272705910770452,0.000871804597816286,0.0,23.876089108439327,-48.46272272464544,7.1875
1772306514.4444573,90.98155311973453,1.782100226637022,-8.862016159799852,0.4999345481201459,1.5305232985574841,9.722436322715081,-0.001072255254293369,0.00020045065647708295,0.0,23.876089108439327,-48.46272272464544,7.1875
1772306514.4715261,90.98155311973453,1.782100226637022,-8.862016159799852,0.503391560334606,1.5311265961186904,9.71827623384406,0.00020045065647708295,0.001072255254293369,0.0,22.6324267776669,-48.99322155312454,7.1875
1772306514.507885,90.98155311973453,1.782100226637022,-8.862016159799852,0.503391560334606,1.5311265961186904,9.71827623384406,0.00020045065647708295,0.001072255254293369,0.0,22.6324267776669,-48.99322155312454,7.1875
1772306514.5403278,90.98155311973453,1.782100226637022,-8.862016159799852,0.5089803118488619,1.5309133874305736,9.715507741171633,0.001072255254293369,-0.00020045065647708295,0.001090830782496456,22.6324267776669,-48.99322155312454,7.1875
1772306514.5611973,90.98155311973453,1.782100226637022,-8.862016159799852,0.5094114150482647,1.5313861959061532,9.713665340224221,-0.00020045065647708295,-0.001072255254293369,-0.002181661564992912,23.016536775622004,-49.31935919196883,6.6875
1772306514.5964587,90.98155311973453,1.782100226637022,-8.862016159799852,0.5094114150482647,1.5313861959061532,9.713665340224221,-0.00020045065647708295,-0.001072255254293369,-0.002181661564992912,23.016536775622004,-49.31935919196883,6.6875
1772306514.614261,90.98155311973453,1.782100226637022,-8.862016159799852,0.5129864579146184,1.5310861481892104,9.712439242974686,-0.001944059852109655,0.0014731565672475347,-0.001090830782496456,23.016536775622004,-49.31935919196883,6.6875
1772306514.6326544,90.98155311973453,1.782100226637022,-8.862016159799852,0.5087893120005523,1.5321158627369864,9.714968400658844,0.0004009013129541659,0.002144510508586738,0.0,23.385150979412426,-49.38826905166941,6.0
1772306514.6470838,90.98155311973453,1.782100226637022,-8.862016159799852,0.5087893120005523,1.5321158627369864,9.714968400658844,0.0004009013129541659,0.002144510508586738,0.0,23.385150979412426,-49.38826905166941,6.0
1772306514.6652997,90.97124933578668,1.786751836346823,-8.866663093994077,0.5125724552857123,1.5315717333142174,9.726686861967066,-0.006433531525760214,0.0012027039388624978,-0.001090830782496456,23.385150979412426,-49.38826905166941,6.0
1772306514.6846495,90.9619205323645,1.7806106521960514,-8.862475328506521,0.5078991013999032,1.5291508657104478,9.72445003194194,-0.0005409052567700744,0.008978943347301116,-0.009817477042468103,23.385150979412426,-49.38826905166941,6.0
1772306514.7244864,90.9619205323645,1.7806106521960514,-8.862475328506521,0.5078991013999032,1.5291508657104478,9.72445003194194,-0.0005409052567700744,0.008978943347301116,-0.009817477042468103,23.385150979412426,-49.38826905166941,6.0
1772306514.7597594,90.97527462677412,1.7298467275346887,-8.892186904946426,0.5179416306052388,1.5250810194597044,9.722961446547247,0.007836686121099794,0.0063030828411910845,0.007635815477475192,23.738269389038166,-49.19995113222628,8.6875
1772306514.789613,90.98453482373208,1.742854704480862,-8.865947437550926,0.5246248216089879,1.5223725822429963,9.685174580815154,0.001011808541632195,-0.012396159766658307,0.0,23.738269389038166,-49.19995113222628,8.6875
1772306514.8076088,90.98453482373208,1.742854704480862,-8.865947437550926,0.5246248216089879,1.5223725822429963,9.685174580815154,0.001011808541632195,-0.012396159766658307,0.0,23.738269389038166,-49.19995113222628,8.6875
1772306514.8224816,90.96493681452877,1.7379293929017556,-8.881614902105643,0.5854002673625036,1.476009429460945,9.660027843777394,0.0009418065697242402,-0.00683443283871438,-0.026179938779914945,23.568910605280642,-48.40529784156163,6.6875
1772306514.847796,90.97523918438058,1.73327960571701,-8.876972045537926,0.6258456476052554,1.4451552691948413,9.636602747771585,-0.009990751888933311,0.011855254509888231,0.02399827721492203,23.568910605280642,-48.40529784156163,6.6875
1772306514.8663414,90.97523918438058,1.73327960571701,-8.876972045537926,0.6258456476052554,1.4451552691948413,9.636602747771585,-0.009990751888933311,0.011855254509888231,0.02399827721492203,23.568910605280642,-48.40529784156163,6.6875
1772306514.8928971,90.98456856371307,1.7394229711525921,-8.881162689951848,0.6498734782014733,1.4455804541702884,9.621013608055186,0.0014731565672475347,0.001944059852109655,0.002181661564992912,23.568910605280642,-48.40529784156163,6.6875
1772306514.9164424,90.96516271388136,1.7369484225956036,-8.871798800187516,0.5705074244710071,1.4636896078207289,9.610639209716025,0.006102632184714002,-0.008908941375393163,-0.020725784867432664,23.1428715184064,-48.643566485019726,7.5625
1772306514.93302,90.96516271388136,1.7369484225956036,-8.871798800187516,0.5448247529130007,1.4570561849886183,9.650566727413407,-0.004018568388788439,-0.0036876690477422266,0.009817477042468103,23.1428715184064,-48.643566485019726,7.5625
1772306514.959477,90.98479471117243,1.7384403463936584,-8.871346918701109,0.5277332218853868,1.452641716194037,9.677138044421417,0.00529127429955889,0.0045594736455585125,0.017453292519943295,23.1428715184064,-48.643566485019726,7.5625
1772306514.9750407,90.98479471117243,1.7384403463936584,-8.871346918701109,0.5277332218853868,1.452641716194037,9.677138044421417,0.00529127429955889,0.0045594736455585125,0.017453292519943295,23.1428715184064,-48.643566485019726,7.5625
1772306515.0034328,90.97650908250411,1.7146388621158344,-8.888752663025057,0.5237353566213141,1.4891617185587644,9.681440512239911,0.006233080869283131,-0.0022749591931558667,-0.01090830782496456,22.936141939304658,-49.74940909639099,7.1875
1772306515.0384402,90.97703375201412,1.705809745687737,-8.899550804473042,0.514498524941376,1.5146947651289826,9.684303756511405,-0.0023449611650638207,-0.000671353941339203,0.009817477042468103,22.936141939304658,-49.74940909639099,7.1875
1772306515.0572147,90.97703375201412,1.705809745687737,-8.899550804473042,0.514498524941376,1.5146947651289826,9.684303756511405,-0.0023449611650638207,-0.000671353941339203,0.009817477042468103,22.936141939304658,-49.74940909639099,7.1875
1772306515.0776727,90.96770412225064,1.6996647359453527,-8.895357251409001,0.5040486413097771,1.5086696828784176,9.706279883833465,0.004689922330127641,0.001342707882678406,-0.011999138607461015,23.06247668208906,-49.07361638944188,7.1875
1772306515.1009407,90.96823078843698,1.690834857951608,-8.906154752634015,0.49709436048579675,1.5046600579452452,9.72090475107687,0.0016736072237246177,0.003016315106403024,0.00545415391248228,23.06247668208906,-49.07361638944188,7.1875
1772306515.1148095,90.96902389223297,1.6775904329473297,-8.92235081362406,0.5119805891754141,1.5153589574779898,9.720602101734924,-0.002545411821540904,-0.001743609195632572,0.006544984694978736,23.06247668208906,-49.07361638944188,7.1875
1772306515.1280234,90.96902389223297,1.6775904329473297,-8.92235081362406,0.5119805891754141,1.5153589574779898,9.720602101734924,-0.002545411821540904,-0.001743609195632572,0.006544984694978736,23.06247668208906,-49.07361638944188,7.1875
1772306515.1434662,90.96902389223297,1.6775904329473297,-8.92235081362406,0.5218872080782843,1.5224789556024925,9.720400691978675,-0.002144510508586738,0.0004009013129541659,0.003272492347489368,23.06247668208906,-49.07361638944188,7.1875
1772306515.1573122,90.96902389223297,1.6775904329473297,-8.92235081362406,0.526635862866487,1.5173527893100902,9.723611767743105,-0.0006713539413392031,0.0023449611650638207,-0.006544984694978736,23.06247668208906,-49.07361638944188,7.1875
1772306515.2101526,90.97004082374755,1.6633647312376518,-8.928731575521953,0.5166434455705282,1.5164001688088236,9.725748702794267,0.002144510508586738,-0.0004009013129541659,0.004363323129985824,23.016536775622004,-49.31935919196883,7.1875
1772306515.2278466,90.95973951901343,1.6680092223274043,-8.93336851458956,0.5124523893859804,1.528918804518257,9.730515920907006,-0.0004009013129541659,-0.002144510508586738,-0.006544984694978736,23.016536775622004,-49.31935919196883,7.1875
1772306515.247201,90.95973951901343,1.6680092223274043,-8.93336851458956,0.5124523893859804,1.528918804518257,9.730515920907006,-0.0004009013129541659,-0.002144510508586738,-0.006544984694978736,23.016536775622004,-49.31935919196883,7.1875
1772306515.2695646,90.95094320436652,1.6530305166927526,-8.93996731100034,0.5096632883123289,1.537249816740561,9.72365311618576,-0.003216765762880107,0.0006013519694312489,-0.009817477042468103,23.016536775622004,-49.31935919196883,7.1875
1772306515.2943897,90.95094320436652,1.6530305166927526,-8.93996731100034,0.5096632883123289,1.537249816740561,9.72365311618576,-0.003216765762880107,0.0006013519694312489,-0.009817477042468103,23.016536775622004,-49.31935919196883,7.1875
1772306515.3721569,90.97655570012274,1.6427609400309902,-8.965807481610483,0.5548884646576665,1.5261156535416622,9.732760367588211,-0.004088570360696393,0.0018740578802017007,0.01090830782496456,22.712821613984243,-48.56317164870238,7.5625
1772306515.4113278,90.94246796010833,1.6301985535165662,-8.967174122299209,0.5521006450985319,1.5021028356979336,9.745217440623906,0.0026154137934488583,-0.003818117732311356,-0.019634954084936207,24.106883592828588,-49.268860991926864,7.5625
1772306515.4541674,90.97704238515962,1.637364259884142,-8.961391455124662,0.5401662706914768,1.5050221020814283,9.743472148452579,0.0016736072237246177,0.003016315106403024,0.018544123302439753,24.106883592828588,-49.268860991926864,7.5625
1772306515.4994018,90.98685723950071,1.638118761718232,-8.961173271440334,0.5322240778392792,1.506964841249302,9.742310676008751,0.002144510508586738,-0.0004009013129541659,0.006544984694978736,24.106883592828588,-49.268860991926864,7.5625
1772306515.5341918,90.98685723950071,1.638118761718232,-8.961173271440334,0.5269386372162489,1.5082577124637035,9.741537729071881,0.003958121676127264,-0.008508040062438996,-0.006544984694978736,25.1667862977328,-49.72133337355556,7.5625
1772306515.5643437,90.97731094928997,1.6329500755987116,-8.966790365765133,0.5269386372162489,1.5082577124637035,9.741537729071881,0.003958121676127264,-0.008508040062438996,-0.006544984694978736,25.1667862977328,-49.72133337355556,7.5625
1772306515.5827115,90.97757992724652,1.6285359444194742,-8.97218925127264,0.5480676983477947,1.5317351129827392,9.73433311810514,0.004088570360696393,-0.0018740578802017007,0.002181661564992912,25.1667862977328,-49.72133337355556,7.5625
1772306515.6114886,90.97757992724652,1.6285359444194742,-8.97218925127264,0.5480676983477947,1.5317351129827392,9.73433311810514,0.004088570360696393,-0.0018740578802017007,0.002181661564992912,25.1667862977328,-49.72133337355556,7.5625
1772306515.6460104,90.97811912459132,1.6197078416647555,-8.982986946984822,0.5358236644806447,1.552276632575005,9.72953852998755,-0.003617667075834273,-0.001543158539155489,-0.006544984694978736,22.936141939304658,-49.74940909639099,8.0
1772306515.6646795,90.97887602898496,1.6098971791962209,-8.983970070316813,0.5276753967168765,1.5659467843998487,9.726347785154353,0.002545411821540904,0.001743609195632572,0.004363323129985824,22.936141939304658,-49.74940909639099,8.0
1772306515.6794677,90.97887602898496,1.6098971791962209,-8.983970070316813,0.5276753967168765,1.5659467843998487,9.726347785154353,0.002545411821540904,0.001743609195632572,0.004363323129985824,22.936141939304658,-49.74940909639099,8.0
1772306515.7073843,90.978389343956,1.6152938702318487,-8.988385757237511,0.5179499402114328,1.5520270782134544,9.720879268403497,0.0006013519694312489,0.003216765762880107,-0.002181661564992912,22.936141939304658,-49.74940909639099,8.0
1772306515.7452886,90.96960343268026,1.6003117137618446,-8.994982985872443,0.5049014605417489,1.5439930621913645,9.710549808178497,0.007104885467099417,-0.0035476651039263183,-0.011999138607461015,24.85960779457411,-49.66390849047174,8.375
1772306515.7717066,90.96960343268026,1.6003117137618446,-8.994982985872443,0.5049014605417489,1.5439930621913645,9.710549808178497,0.007104885467099417,-0.0035476651039263183,-0.011999138607461015,24.85960779457411,-49.66390849047174,8.375
1772306515.810625,90.97968941804982,1.5966556254688082,-9.00016654013086,0.5258111796086479,1.533114245992083,9.70367566778639,-0.0013427078826784061,0.004689922330127641,0.00545415391248228,24.85960779457411,-49.66390849047174,8.375
1772306515.8370433,90.97554574623989,1.591969790787507,-9.006052135270428,0.5105330578968544,1.5517503711113818,9.72586189780318,-0.001072255254293369,0.00020045065647708295,-0.013089969389957472,23.385150979412426,-49.38826905166941,8.6875
1772306515.8505638,90.97554574623989,1.591969790787507,-9.006052135270428,0.5105330578968544,1.5517503711113818,9.72586189780318,-0.001072255254293369,0.00020045065647708295,-0.013089969389957472,23.385150979412426,-49.38826905166941,8.6875
1772306515.8793216,90.9706924411359,1.5826548530682383,-9.016576705786873,0.5003656385654579,1.564152504199117,9.740626586042923,0.00020045065647708295,0.001072255254293369,-0.001090830782496456,23.385150979412426,-49.38826905166941,8.6875
1772306515.9130023,90.9709657276117,1.578240772310831,-9.021975073623876,0.4935993345779294,1.5724059852281005,9.73707187430482,-0.004960374958512679,0.0031467637909721523,0.007635815477475192,23.1428715184064,-48.643566485019726,8.0
1772306515.9592752,90.9709657276117,1.578240772310831,-9.021975073623876,0.47471444789559064,1.5737810735529838,9.721325806522568,0.0015431585391554891,-0.0036176670758342726,-0.003272492347489368,23.1428715184064,-48.643566485019726,8.0
1772306515.992864,90.97123942780864,1.5738267454623573,-9.027373416652233,0.47471444789559064,1.5737810735529838,9.721325806522568,0.0031467637909721527,0.004960374958512678,0.006544984694978736,23.738269389038166,-49.19995113222628,8.0
1772306516.0392036,90.95167270175612,1.5688708899593884,-9.043011384581218,0.46543491526939046,1.574081482996626,9.674050745528069,-0.0053612762714668446,0.0010022532823854146,-0.008726646259971648,23.738269389038166,-49.19995113222628,8.0
1772306516.0722797,90.95167270175612,1.5688708899593884,-9.043011384581218,0.46543491526939046,1.574081482996626,9.674050745528069,-0.0053612762714668446,0.0010022532823854146,-0.008726646259971648,23.738269389038166,-49.19995113222628,8.0
1772306516.1124709,90.96731047519845,1.5681564938134678,-9.023444464042035,0.4564262396934216,1.508427391060557,9.65510387691509,0.0,0.0,-0.031634092692397225,23.980548850044187,-49.94465369887597,6.6875
1772306516.1412423,90.96731047519845,1.5681564938134678,-9.023444464042035,0.4564262396934216,1.508427391060557,9.65510387691509,0.0,0.0,-0.031634092692397225,23.980548850044187,-49.94465369887597,6.6875
1772306516.1997204,91.02156793386533,1.5734316907172403,-9.032467151525465,0.45904055330518345,1.488672769408413,9.693537913560784,0.0001400039438159086,-0.011123453855887854,0.03599741582238305,23.385150979412426,-49.38826905166941,7.1875
1772306516.238376,158.93435224142223,32.093711840328105,133.6846805970806,0.4663126180924341,1.5051196258984996,9.719115335612173,0.0031467637909721527,0.004960374958512678,-0.017453292519943295,23.385150979412426,-49.38826905166941,7.1875
1772306516.2687826,158.93435224142223,32.093711840328105,133.6846805970806,0.4663126180924341,1.5051196258984996,9.719115335612173,0.0031467637909721527,0.004960374958512678,-0.017453292519943295,23.385150979412426,-49.38826905166941,7.1875
1772306516.3574395,90.96715974662234,1.5657062101099324,-9.04847156111185,0.47115209597406293,1.516064825169227,9.742827047683486,0.0006713539413392031,-0.0023449611650638207,-0.015271630954950384,23.69232948257111,-49.44569393475323,8.0
1772306516.401549,90.97648581907134,1.5718653682347665,-9.052674267588673,0.473143321492128,1.51677243601223,9.73519114523853,0.009249395975686154,-0.003948566416880484,-0.018544123302439753,23.69232948257111,-49.44569393475323,8.0
1772306516.4538393,90.99169880222071,1.573116382569734,-9.05273577788735,0.5139262418656274,1.509866985413825,9.73010953746003,0.0004009013129541659,0.002144510508586738,0.017453292519943295,24.106883592828588,-49.268860991926864,6.6875
1772306516.4832025,90.98629972145763,1.5726282550087507,-9.052460920819003,0.5016090377644465,1.5126478428894166,9.726727784248718,0.001072255254293369,-0.00020045065647708295,-0.016362461737446838,24.106883592828588,-49.268860991926864,6.6875
1772306516.5331712,91.00151286968931,1.5738792579110774,-9.052522215701496,0.4888945345727576,1.5085368719452548,9.724477265263248,-0.0006713539413392031,0.0023449611650638207,0.013089969389957472,23.738269389038166,-49.19995113222628,6.6875
1772306516.570236,91.00151286968931,1.5738792579110774,-9.052522215701496,0.4888945345727576,1.5085368719452548,9.724477265263248,-0.0006713539413392031,0.0023449611650638207,0.013089969389957472,23.738269389038166,-49.19995113222628,6.6875
1772306516.609092,90.99246207307367,1.563305932874461,-9.053720266254599,0.4574161352087692,1.5101039420352402,9.722979570018362,0.0,0.0,-0.002181661564992912,23.738269389038166,-49.19995113222628,6.6875
1772306516.6370337,90.99273762115031,1.5588928287972441,-9.059119580210337,0.4364676120687961,1.511146809674806,9.721982870563242,0.0008018026259083318,0.004289021017173476,0.004363323129985824,24.18727842914593,-48.83881108750471,7.1875
1772306516.6679065,90.99301358290072,1.5544797790403566,-9.064518869417372,0.43217638331438135,1.5270521760021403,9.72800980162436,0.002144510508586738,-0.0004009013129541659,-0.001090830782496456,24.18727842914593,-48.83881108750471,7.1875
1772306516.6858263,90.99301358290072,1.5544797790403566,-9.064518869417372,0.43217638331438135,1.5270521760021403,9.72800980162436,0.002144510508586738,-0.0004009013129541659,-0.001090830782496456,24.18727842914593,-48.83881108750471,7.1875
1772306516.708648,90.99328995831306,1.5500667836750557,-9.069918133899666,0.46241676966714673,1.5144346158698823,9.732020656920303,-0.0017436091956325721,0.0025454118215409035,0.0,24.617328333568086,-48.91920592382205,8.0
1772306516.7280931,90.99328995831306,1.5500667836750557,-9.069918133899666,0.4595243694574361,1.510340645880017,9.734689836315564,0.0008718045978162861,-0.0012727059107704517,-0.003272492347489368,24.617328333568086,-48.91920592382205,8.0
1772306516.7496796,90.99328995831306,1.5500667836750557,-9.069918133899666,0.4595243694574361,1.510340645880017,9.734689836315564,0.0008718045978162861,-0.0012727059107704517,-0.003272492347489368,24.617328333568086,-48.91920592382205,8.0
1772306516.773117,90.99328995831306,1.5500667836750557,-9.069918133899666,0.48061654894832734,1.5033132792536323,9.736466145386423,-0.0002704526283850372,0.004489471673650558,0.003272492347489368,23.016536775622004,-49.31935919196883,7.1875
1772306516.8194067,90.99356674737548,1.5456538427725919,-9.075317373681186,0.4833446542003477,1.5109598766765682,9.73095803581577,0.001072255254293369,-0.00020045065647708295,-0.001090830782496456,23.016536775622004,-49.31935919196883,7.1875
1772306516.9098792,90.99384395007621,1.5412409564042113,-9.080716588785894,0.5115620353309709,1.5147253146658832,9.724853044296571,-0.0004009013129541659,-0.002144510508586738,0.0,23.511485722196824,-48.71247634472031,7.5625
1772306516.9358716,90.99384395007621,1.5412409564042113,-9.080716588785894,0.5203792722187113,1.5154809763835106,9.733264981889269,0.0,0.0,-0.00545415391248228,23.511485722196824,-48.71247634472031,7.5625
1772306516.956887,90.99384395007621,1.5412409564042113,-9.080716588785894,0.5203792722187113,1.5154809763835106,9.733264981889269,0.0,0.0,-0.00545415391248228,23.511485722196824,-48.71247634472031,7.5625
1772306517.006853,90.99384395007621,1.5412409564042113,-9.080716588785894,0.5301519820263023,1.516318524787064,9.737017226282237,0.0017436091956325721,-0.0025454118215409035,0.0,23.511485722196824,-48.71247634472031,6.6875
1772306517.0267472,90.99384395007621,1.5412409564042113,-9.080716588785894,0.5301519820263023,1.516318524787064,9.737017226282237,0.0017436091956325721,-0.0025454118215409035,0.0,23.511485722196824,-48.71247634472031,6.6875
1772306517.045825,90.99384395007621,1.5412409564042113,-9.080716588785894,0.5064454860580273,1.5214588117284285,9.734669885703275,0.001072255254293369,-0.00020045065647708295,-0.003272492347489368,23.511485722196824,-48.71247634472031,6.6875
1772306517.0679646,90.99384395007621,1.5412409564042113,-9.080716588785894,0.49128377428587633,1.5281677637700286,9.729762645062168,0.0,0.0,0.008726646259971648,23.016536775622004,-49.31935919196883,7.1875
1772306517.1501248,90.98403020827962,1.5404753720864763,-9.080927542580973,0.4811938244689278,1.5326324964098086,9.729842042940302,0.00388811970421931,-0.0029463131344950695,-0.011999138607461015,23.016536775622004,-49.31935919196883,7.1875
1772306517.1732116,90.98403020827962,1.5404753720864763,-9.080927542580973,0.4811938244689278,1.5326324964098086,9.729842042940302,0.00388811970421931,-0.0029463131344950695,-0.011999138607461015,23.016536775622004,-49.31935919196883,7.1875
1772306517.2227626,90.98403020827962,1.5404753720864763,-9.080927542580973,0.48105537258365216,1.534374333155602,9.726549769633948,0.004890372986604725,0.002414963136971775,0.00545415391248228,23.81866422535551,-48.76990122780413,7.1875
1772306517.2528937,90.98403020827962,1.5404753720864763,-9.080927542580973,0.48425138290349956,1.5349188095765114,9.73104902194031,0.0014731565672475347,0.001944059852109655,-0.003272492347489368,23.81866422535551,-48.76990122780413,7.1875
1772306517.3204517,90.98403020827962,1.5404753720864763,-9.080927542580973,0.49295458907536244,1.5340517596007779,9.724007888968295,0.0023449611650638207,0.000671353941339203,0.002181661564992912,23.69232948257111,-49.44569393475323,8.0
1772306517.3419247,90.98403020827962,1.5404753720864763,-9.080927542580973,0.4999758685132028,1.540051044533289,9.726012317044667,-0.0006713539413392031,0.0023449611650638207,0.001090830782496456,23.69232948257111,-49.44569393475323,8.0
1772306517.3732667,90.98403020827962,1.5404753720864763,-9.080927542580973,0.5046484515462552,1.5440435016394713,9.720656018123925,-0.001944059852109655,0.0014731565672475347,0.0,23.69232948257111,-49.44569393475323,8.0
1772306517.4194634,90.98403020827962,1.5404753720864763,-9.080927542580973,0.503855158379865,1.5440269852179025,9.710401237611311,-0.0053612762714668446,0.0010022532823854146,0.001090830782496456,23.06247668208906,-49.07361638944188,8.6875
1772306517.467423,90.98403020827962,1.5404753720864763,-9.080927542580973,0.503855158379865,1.5440269852179025,9.710401237611311,-0.0053612762714668446,0.0010022532823854146,0.001090830782496456,23.06247668208906,-49.07361638944188,8.6875
1772306517.5018394,90.98403020827962,1.5404753720864763,-9.080927542580973,0.5027125341634734,1.5407278452209594,9.703576795733571,-0.006633982182237297,0.0001304486845691289,0.003272492347489368,23.06247668208906,-49.07361638944188,8.6875
1772306517.5338862,90.98403020827962,1.5404753720864763,-9.080927542580973,0.5027125341634734,1.5407278452209594,9.703576795733571,-0.006633982182237297,0.0001304486845691289,0.003272492347489368,23.06247668208906,-49.07361638944188,8.6875
1772306517.607022,90.98403020827962,1.5404753720864763,-9.080927542580973,0.4892639482225104,1.5325424397427518,9.69601282859522,-0.007505786780053583,0.0014031545953395806,-0.007635815477475192,23.511485722196824,-48.71247634472031,6.375
1772306517.6233857,90.98403020827962,1.5404753720864763,-9.080927542580973,0.4892639482225104,1.5325424397427518,9.69601282859522,-0.007505786780053583,0.0014031545953395806,-0.007635815477475192,23.511485722196824,-48.71247634472031,6.375
1772306517.652726,90.98403020827962,1.5404753720864763,-9.080927542580973,0.4833524674133502,1.517873658935227,9.694001470262423,-0.006032630212806049,0.0033472144474492355,0.001090830782496456,24.18727842914593,-48.83881108750471,7.1875
1772306517.6831448,90.97863154307231,1.5399871924657629,-9.08065003232638,0.48147719852166226,1.5009207556872344,9.706043380589568,0.001944059852109655,-0.0014731565672475347,-0.007635815477475192,24.18727842914593,-48.83881108750471,7.1875
1772306517.7315013,90.97863154307231,1.5399871924657629,-9.08065003232638,0.48022922802237,1.489638787952033,9.714057137395331,0.0,0.0,0.001090830782496456,23.43109088587948,-49.14252624914246,7.5625
1772306517.7600932,90.97863154307231,1.5399871924657629,-9.08065003232638,0.48022922802237,1.489638787952033,9.714057137395331,0.0,0.0,0.001090830782496456,23.43109088587948,-49.14252624914246,7.5625
1772306517.780091,90.97863154307231,1.5399871924657629,-9.08065003232638,0.4837015929266058,1.50514780397232,9.719390203030038,0.0008718045978162861,-0.0012727059107704517,0.002181661564992912,23.43109088587948,-49.14252624914246,7.5625
1772306517.7965386,90.97863154307231,1.5399871924657629,-9.08065003232638,0.4860124129815171,1.5154688808867605,9.726284410343007,0.0014731565672475347,0.001944059852109655,0.001090830782496456,23.43109088587948,-49.14252624914246,7.5625
1772306517.8141592,90.97863154307231,1.5399871924657629,-9.08065003232638,0.4860124129815171,1.5154688808867605,9.726284410343007,0.0014731565672475347,0.001944059852109655,0.001090830782496456,23.43109088587948,-49.14252624914246,7.5625
1772306517.8541634,90.97863154307231,1.5399871924657629,-9.08065003232638,0.4951705636436475,1.490285319850034,9.730872428296447,0.004890372986604725,0.002414963136971775,0.001090830782496456,24.18727842914593,-48.83881108750471,8.0
1772306517.8912797,90.97863154307231,1.5399871924657629,-9.08065003232638,0.4881126165944913,1.4759847272022,9.733925702992943,0.008778492690824034,-0.0005313499975232947,0.0,24.18727842914593,-48.83881108750471,8.0
1772306517.9280932,90.97869871883813,1.536556863051036,-9.09586182002398,0.4973682863913841,1.5046962316261783,9.71923206465955,0.00576217758442101,0.0011422572262013231,0.002181661564992912,24.81257293605307,-47.87479901308252,7.1875
1772306517.9515905,90.97869871883813,1.536556863051036,-9.09586182002398,0.49695153424283106,1.525032810043465,9.709453612487373,0.002815864449925941,-0.0027458624780179867,-0.003272492347489368,24.81257293605307,-47.87479901308252,7.1875
1772306517.980237,90.97869871883813,1.536556863051036,-9.09586182002398,0.5001770049700526,1.5208964403396072,9.716326608628535,0.003216765762880107,-0.0006013519694312489,-0.001090830782496456,24.81257293605307,-47.87479901308252,7.1875
1772306518.0099592,90.97869871883813,1.536556863051036,-9.09586182002398,0.5056116682110391,1.5175290360321425,9.72090051078408,0.0030163151064030243,-0.0016736072237246177,0.001090830782496456,24.18727842914593,-48.83881108750471,7.1875
1772306518.0675094,90.97869871883813,1.536556863051036,-9.09586182002398,0.5079989829371006,1.508711769076117,9.710563944745482,-0.0023449611650638207,-0.000671353941339203,0.002181661564992912,24.18727842914593,-48.83881108750471,7.1875
1772306518.1093497,90.97869871883813,1.536556863051036,-9.09586182002398,0.506299565716352,1.5034586728880317,9.703685075513803,-0.00020045065647708295,-0.001072255254293369,-0.001090830782496456,24.060943686361533,-49.51460379445381,7.1875
1772306518.1413298,90.97869871883813,1.536556863051036,-9.09586182002398,0.5018804740367888,1.5005774925316149,9.699107264882127,0.0023449611650638207,0.000671353941339203,0.002181661564992912,24.060943686361533,-49.51460379445381,7.1875
1772306518.1758165,90.97869871883813,1.536556863051036,-9.09586182002398,0.5001690108401767,1.5052363961950916,9.692715671336922,0.0014731565672475347,0.001944059852109655,-0.001090830782496456,24.060943686361533,-49.51460379445381,7.1875
1772306518.2210073,90.97869871883813,1.536556863051036,-9.09586182002398,0.49574190269823853,1.508951541015596,9.688462137231365,-0.00020045065647708295,-0.001072255254293369,-0.002181661564992912,23.43109088587948,-49.14252624914246,6.75
1772306518.2567716,90.97869871883813,1.536556863051036,-9.09586182002398,0.4993720086895959,1.510194535441106,9.702357016335805,0.003216765762880107,-0.0006013519694312489,0.0,23.43109088587948,-49.14252624914246,6.75
1772306518.2791255,90.97869871883813,1.536556863051036,-9.09586182002398,0.5036318931033765,1.520886179854794,9.711603903163839,-0.00020045065647708295,-0.001072255254293369,-0.003272492347489368,23.511485722196824,-48.71247634472031,6.6875
1772306518.301884,90.97869871883813,1.536556863051036,-9.09586182002398,0.5064667985947207,1.5280013497786091,9.717757603053402,0.0004709032848621201,-0.00341721641935719,-0.001090830782496456,23.511485722196824,-48.71247634472031,6.6875
1772306518.367927,90.97869871883813,1.536556863051036,-9.09586182002398,0.5097974556066571,1.5222572738967595,9.728543045003212,-0.02458542877477325,-0.1374491232060283,-0.001090830782496456,24.060943686361533,-49.51460379445381,7.5625
1772306518.415741,90.97869871883813,1.536556863051036,-9.09586182002398,0.5054376736364453,1.5196640485145696,9.73572063613953,-0.001272705910770452,-0.000871804597816286,0.001090830782496456,24.060943686361533,-49.51460379445381,7.5625
