timestamp,yaw,pitch,roll,ax,ay,az,gx,gy,gz,mx,my,mz
1773078182.5400734,-0.08532835056083014,1.2700803586787708,-7.686646406616459,-0.2094415567910131,-1.3141535488691631,9.700507389877068,0.001090830782496456,0.001090830782496456,0.0,2.0,0.25,-98.5625
1773078182.6284964,-0.08532835056083014,1.2700803586787708,-7.686646406616459,-0.2094415567910131,-1.3141535488691631,9.700507389877068,0.001090830782496456,0.001090830782496456,0.0,2.0,0.25,-98.5625
1773078182.6639311,-0.08532835056083014,1.2700803586787708,-7.686646406616459,-0.2094415567910131,-1.3141535488691631,9.700507389877068,0.001090830782496456,0.001090830782496456,0.0,2.0,0.25,-98.5625
1773078182.6787457,-0.16217560958220398,1.2579106960486373,-7.736766895616487,-0.21297347398995797,-1.3127641403742472,9.723753444246508,-0.001090830782496456,0.0,0.002181661564992912,2.375,-2.25,-100.1875
1773078182.705952,-0.16083485721120444,1.2369673605981468,-7.743734099003481,-0.20863370201711678,-1.3118395045415903,9.72584298692465,0.05235987755982989,-0.018544123302439753,0.0818123086872342,2.375,-2.25,-100.1875
1773078182.7193573,-0.16083485721120444,1.2369673605981468,-7.743734099003481,-0.20863370201711678,-1.3118395045415903,9.72584298692465,0.05235987755982989,-0.018544123302439753,0.0818123086872342,2.375,-2.25,-100.1875
1773078182.7358184,-0.00722252127572633,1.2543034893407115,-7.692793692024395,-0.20574563224762035,-1.3112241697238163,9.610154644479055,0.03381575425739013,-0.02399827721492203,0.12217304763960307,2.375,-0.75,-98.5625
1773078182.7526243,-0.09505267352642852,1.3045076519856067,-7.722044355157956,-0.310867228712094,-1.093382410300568,9.533165344904972,-0.017453292519943295,0.026179938779914945,-0.08835729338221293,2.375,-0.75,-98.5625
1773078182.8253562,-0.11206862020927524,1.2472611669821332,-7.708014788722144,-0.38082447687402615,-0.9484111528562957,9.59231851240679,0.03490658503988659,-0.04581489286485115,0.009817477042468103,2.6875,0.0,-98.5625
1773078182.8447886,-0.050030402951850086,1.2584803004043015,-7.735522954351384,-0.5444591538083041,-0.8653148472914658,9.631684284595071,-0.006544984694978736,-0.016362461737446838,0.04363323129985824,2.6875,0.0,-98.5625
1773078182.8722785,-0.050030402951850086,1.2584803004043015,-7.735522954351384,-0.5444591538083041,-0.8653148472914658,9.631684284595071,-0.006544984694978736,-0.016362461737446838,0.04363323129985824,2.6875,0.0,-98.5625
1773078182.903343,-0.12767219925597104,1.2672519670300821,-7.729364350338283,-0.20996167302697946,-0.9404694614907061,9.614032189639655,0.007635815477475192,-0.008726646259971648,0.0272707695624114,2.0,1.5,-97.0
1773078182.952998,-0.12767219925597104,1.2672519670300821,-7.729364350338283,-0.20996167302697946,-0.9404694614907061,9.614032189639655,0.007635815477475192,-0.008726646259971648,0.0272707695624114,2.0,1.5,-97.0
1773078182.9815922,-0.09143572217551259,1.2486698007380739,-7.735958849160386,-0.1866499839270508,-1.161997882916371,9.572763394272089,-0.006544984694978736,0.008726646259971648,-0.025089107997418487,2.375,0.75,-98.5625
1773078183.0207434,-0.09143572217551259,1.2486698007380739,-7.735958849160386,-0.1866499839270508,-1.161997882916371,9.572763394272089,-0.006544984694978736,0.008726646259971648,-0.025089107997418487,2.375,0.75,-98.5625
1773078183.046123,-0.1053948037076538,1.2477261569442577,-7.736110319630988,-0.2178766070914583,-1.2516475848606539,9.548423226067703,0.003272492347489368,0.002181661564992912,-0.002181661564992912,1.5625,0.0,-98.1875
1773078183.107579,-0.1058669079459786,1.2547057131375603,-7.736132223291803,-0.22527712915385725,-1.307963348344466,9.63257846724476,0.003272492347489368,-0.003272492347489368,0.009817477042468103,1.5625,0.0,-98.1875
1773078183.131844,-0.1058669079459786,1.2547057131375603,-7.736132223291803,-0.2302020939171356,-1.345440859854645,9.688582840172451,-0.006544984694978736,0.006544984694978736,-0.006544984694978736,1.25,0.375,-98.1875
1773078183.146824,-0.1058669079459786,1.2547057131375603,-7.736132223291803,-0.2302020939171356,-1.345440859854645,9.688582840172451,-0.006544984694978736,0.006544984694978736,-0.006544984694978736,1.25,0.375,-98.1875
1773078183.1753788,-0.11284646573889762,1.2542338901124996,-7.736208381785591,-0.23347960295163614,-1.323550161210963,9.782720023770421,0.001090830782496456,0.004363323129985824,-0.008726646259971648,1.25,0.375,-98.1875
1773078183.196564,-0.11284646573889762,1.2542338901124996,-7.736208381785591,-0.22562541347996326,-1.3089821457987192,9.83198682104435,0.001090830782496456,-0.002181661564992912,0.009817477042468103,2.0,1.5,-97.75
1773078183.2197776,-0.09190778943557006,1.255649359443011,-7.735979906221718,-0.22039853812361013,-1.299287294277266,9.864773324283963,-0.001090830782496456,-0.004363323129985824,0.011999138607461015,2.0,1.5,-97.75
1773078183.238388,-0.09190778943557006,1.255649359443011,-7.735979906221718,-0.22039853812361013,-1.299287294277266,9.864773324283963,-0.001090830782496456,-0.004363323129985824,0.011999138607461015,2.0,1.5,-97.75
1773078183.2761228,-0.09190778943557006,1.255649359443011,-7.735979906221718,-0.23030055779125813,-1.3530474896200753,9.806309694965021,-0.003272492347489368,0.001090830782496456,-0.00545415391248228,2.6875,0.75,-99.25
1773078183.2931626,-0.09190778943557006,1.255649359443011,-7.735979906221718,-0.23030055779125813,-1.3530474896200753,9.806309694965021,-0.003272492347489368,0.001090830782496456,-0.00545415391248228,2.6875,0.75,-99.25
1773078183.3175805,-0.09198464741984888,1.2556489324536555,-7.743023029613319,-0.23689024126727054,-1.3888242990799837,9.767402802734797,0.0,0.002181661564992912,-0.004363323129985824,2.6875,0.75,-99.25
1773078183.33319,-0.09198464741984888,1.2556489324536555,-7.743023029613319,-0.23689024126727054,-1.3888242990799837,9.767402802734797,0.0,0.002181661564992912,-0.004363323129985824,2.6875,0.75,-99.25
1773078183.3463216,-0.09198464741984888,1.2556489324536555,-7.743023029613319,-0.22789515517969158,-1.3490762436833363,9.788342264476517,0.001090830782496456,-0.002181661564992912,0.006544984694978736,1.5625,1.5,-97.75
1773078183.3597066,-0.09198464741984888,1.2556489324536555,-7.743023029613319,-0.22190902587010325,-1.3226243568317395,9.802277242356519,0.0,-0.002181661564992912,0.006544984694978736,1.5625,1.5,-97.75
1773078183.3841481,-0.09198464741984888,1.2556489324536555,-7.743023029613319,-0.22190902587010325,-1.3226243568317395,9.802277242356519,0.0,-0.002181661564992912,0.006544984694978736,1.5625,1.5,-97.75
1773078183.3981512,-0.09198464741984888,1.2556489324536555,-7.743023029613319,-0.21792532368401807,-1.3485073738140911,9.784789920813203,-0.002181661564992912,0.002181661564992912,-0.003272492347489368,1.5625,1.5,-97.75
1773078183.4155424,-0.09198464741984888,1.2556489324536555,-7.743023029613319,-0.21792532368401807,-1.3485073738140911,9.784789920813203,-0.002181661564992912,0.002181661564992912,-0.003272492347489368,1.5625,1.5,-97.75
1773078183.4332314,-0.09206150540379668,1.2556485054643,-7.750066266962618,-0.21527421438004762,-1.3657322324836016,9.773152303672306,0.001090830782496456,0.006544984694978736,-0.007635815477475192,1.5625,1.0625,-97.375
1773078183.4650168,-0.09198464741984888,1.2556489324536555,-7.743023029613319,-0.21350993075308666,-1.3638147366846045,9.77878804629502,-0.001090830782496456,-0.001090830782496456,0.002181661564992912,1.5625,1.0625,-97.375
1773078183.490397,-0.09198464741984888,1.2556489324536555,-7.743023029613319,-0.21233581970768362,-1.3625386646502033,9.782538570055065,0.0,0.0,0.00545415391248228,2.375,0.75,-100.1875
1773078183.5190616,-0.09198464741984888,1.2556489324536555,-7.743023029613319,-0.21233581970768362,-1.3625386646502033,9.782538570055065,0.0,0.0,0.00545415391248228,2.375,0.75,-100.1875
1773078183.5345016,-0.09198464741984888,1.2556489324536555,-7.743023029613319,-0.21155446192264762,-1.3683796763806069,9.771654054892002,-0.001090830782496456,0.001090830782496456,-0.003272492347489368,2.375,0.75,-100.1875
1773078183.549986,-0.09253443094356516,1.2626280828028236,-7.750087476622614,-0.21437958875236393,-1.3789570278534529,9.744339861395067,-0.001090830782496456,0.004363323129985824,-0.006544984694978736,2.375,0.75,-100.1875
1773078183.5712612,-0.09206150540379668,1.2556485054643,-7.750066266962618,-0.21625967909880564,-1.3859961371018739,9.726162570742392,-0.001090830782496456,0.001090830782496456,-0.002181661564992912,3.0625,1.0625,-97.375
1773078183.5941777,-0.09198464741984888,1.2556489324536555,-7.743023029613319,-0.20747552310041917,-1.3304685749429466,9.750862015647192,0.001090830782496456,0.0,0.002181661564992912,3.0625,1.0625,-97.375
1773078183.6074247,-0.09198464741984888,1.2556489324536555,-7.743023029613319,-0.20747552310041917,-1.3304685749429466,9.750862015647192,0.001090830782496456,0.0,0.002181661564992912,3.0625,1.0625,-97.375
1773078183.6263402,-0.09198464741984888,1.2556489324536555,-7.743023029613319,-0.20162976540894492,-1.2935156026096926,9.767299220320458,0.001090830782496456,0.0,0.004363323129985824,3.0625,1.0625,-97.375
1773078183.6393406,-0.09198464741984888,1.2556489324536555,-7.743023029613319,-0.20162976540894492,-1.2935156026096926,9.767299220320458,0.001090830782496456,0.0,0.004363323129985824,3.0625,1.0625,-97.375
1773078183.6594262,-0.09198464741984888,1.2556489324536555,-7.743023029613319,-0.20108459067398035,-1.275614035728299,9.778237996414909,-0.001090830782496456,0.001090830782496456,0.002181661564992912,2.6875,0.0,-99.0
1773078183.6824584,-0.09198464741984888,1.2556489324536555,-7.743023029613319,-0.20108459067398035,-1.275614035728299,9.778237996414909,-0.001090830782496456,0.001090830782496456,0.002181661564992912,2.6875,0.0,-99.0
1773078183.7046556,-0.09253443094356516,1.2626280828028236,-7.750087476622614,-0.20072178297786225,-1.310532306844808,9.758756736053074,-0.001090830782496456,0.003272492347489368,-0.00545415391248228,2.6875,0.0,-99.0
1773078183.7303488,-0.07799307319359504,-1.2624346561141284,7.778431494336234,-0.20048033850892316,-1.3337700262101984,9.745792174902212,-0.001090830782496456,0.004363323129985824,-0.001090830782496456,2.0,1.0625,-99.25
1773078183.7551744,-0.07799307319359504,-1.2624346561141284,7.778431494336234,-0.20048033850892316,-1.3337700262101984,9.745792174902212,-0.001090830782496456,0.004363323129985824,-0.001090830782496456,2.0,1.0625,-99.25
1773078183.7775774,-0.09198464741984888,1.2556489324536555,-7.743023029613319,-0.20031965991195563,-1.325818686914296,9.763925297938504,0.0,0.0,0.003272492347489368,2.0,1.0625,-99.25
1773078183.7930448,-0.09198464741984888,1.2556489324536555,-7.743023029613319,-0.20031965991195563,-1.325818686914296,9.763925297938504,0.0,0.0,0.003272492347489368,2.0,1.0625,-99.25
1773078183.810451,-0.09253443094356516,1.2626280828028236,-7.750087476622614,-0.20021273010057128,-1.3205271594351529,9.775992688758901,0.001090830782496456,0.001090830782496456,0.0,2.0,0.75,-99.0
1773078183.8259275,-0.09253443094356516,1.2626280828028236,-7.750087476622614,-0.20014156950557926,-1.3303861538372956,9.763952732304372,0.0,0.006544984694978736,-0.004363323129985824,2.0,0.75,-99.0
1773078183.8416376,-0.09253443094356516,1.2626280828028236,-7.750087476622614,-0.20014156950557926,-1.3303861538372956,9.763952732304372,0.0,0.006544984694978736,-0.004363323129985824,2.0,0.75,-99.0
1773078183.8799226,-0.09206150540379668,1.2556485054643,-7.750066266962618,-0.200094212924528,-1.3369472044797381,9.755940275779007,-0.002181661564992912,0.002181661564992912,0.0,2.0,0.75,-99.0
1773078183.9130785,-0.09206150540379668,1.2556485054643,-7.750066266962618,-0.200094212924528,-1.3369472044797381,9.755940275779007,-0.002181661564992912,0.002181661564992912,0.0,2.0,0.75,-99.0
1773078183.933387,-0.09198464741984888,1.2556489324536555,-7.743023029613319,-0.20006269764884607,-1.3145526167319905,9.76064341058834,0.0,0.0,0.002181661564992912,2.375,1.0625,-97.0
1773078183.951502,-0.09253443094356516,1.2626280828028236,-7.750087476622614,-0.20004172458492844,-1.2996492687498011,9.763773294266493,0.0,0.001090830782496456,-0.002181661564992912,2.375,1.0625,-97.0
1773078183.96366,-0.09253443094356516,1.2626280828028236,-7.750087476622614,-0.20004172458492844,-1.2996492687498011,9.763773294266493,0.0,0.001090830782496456,-0.002181661564992912,2.375,1.0625,-97.0
1773078183.9772696,-0.09253443094356516,1.2626280828028236,-7.750087476622614,-0.20002776724517574,-1.3031117039782367,9.765856196891212,0.001090830782496456,0.004363323129985824,-0.001090830782496456,2.375,1.0625,-97.0
1773078183.9925952,-0.09253443094356516,1.2626280828028236,-7.750087476622614,-0.1966733670841646,-1.3054159159448249,9.777277680442374,0.001090830782496456,-0.002181661564992912,0.002181661564992912,2.6875,0.75,-97.0
1773078184.0208607,-0.09198464741984888,1.2556489324536555,-7.743023029613319,-0.19444105124811673,-1.306949343268855,9.784878550159341,-0.001090830782496456,0.001090830782496456,0.0,2.6875,0.75,-97.0
1773078184.0351887,-0.09198464741984888,1.2556489324536555,-7.743023029613319,-0.19444105124811673,-1.306949343268855,9.784878550159341,-0.001090830782496456,0.001090830782496456,0.0,2.6875,0.75,-97.0
1773078184.089331,-0.09253443094356516,1.2626280828028236,-7.750087476622614,-0.2042283018632939,-1.311994050942527,9.783267747005272,0.0,0.003272492347489368,-0.002181661564992912,2.0,1.0625,-97.75
1773078184.1182861,-0.09253443094356516,1.2626280828028236,-7.750087476622614,-0.2042283018632939,-1.311994050942527,9.783267747005272,0.0,0.003272492347489368,-0.002181661564992912,2.0,1.0625,-97.75
1773078184.1431086,-0.09253443094356516,1.2626280828028236,-7.750087476622614,-0.20950411107143418,-1.3146721303345625,9.778829537421563,0.001090830782496456,0.0,0.0,2.0,1.0625,-97.75
1773078184.1644304,-0.09198464741984888,1.2556489324536555,-7.743023029613319,-0.20966999145748175,-1.3164543622538551,9.775875958521654,0.0,-0.002181661564992912,0.002181661564992912,2.6875,1.0625,-99.0
1773078184.1857653,-0.09206150540379668,1.2556485054643,-7.750066266962618,-0.20978038300139107,-1.3209855293946289,9.773910384757404,0.0,-0.001090830782496456,0.0,2.6875,1.0625,-99.0
1773078184.2198172,-0.09206150540379668,1.2556485054643,-7.750066266962618,-0.20978038300139107,-1.3209855293946289,9.773910384757404,0.0,-0.001090830782496456,0.0,2.6875,1.0625,-99.0
1773078184.2481892,-0.09206150540379668,1.2556485054643,-7.750066266962618,-0.20978038300139107,-1.3209855293946289,9.773910384757404,0.0,-0.001090830782496456,0.0,2.6875,1.0625,-99.0
1773078184.2825046,-0.09206150540379668,1.2556485054643,-7.750066266962618,-0.2099027370378736,-1.3326979363028337,9.771731813142734,-0.001090830782496456,-0.002181661564992912,0.002181661564992912,2.0,1.5,-97.375
1773078184.3237774,-0.09206150540379668,1.2556485054643,-7.750066266962618,-0.2099027370378736,-1.3326979363028337,9.771731813142734,-0.001090830782496456,-0.002181661564992912,0.002181661564992912,2.0,1.5,-97.375
1773078184.3399105,-0.09206150540379668,1.2556485054643,-7.750066266962618,-0.20993527258520336,-1.3384856698862515,9.774497614008189,-0.001090830782496456,0.0,0.0,3.0625,1.0625,-97.0
1773078184.3758242,-0.09206150540379668,1.2556485054643,-7.750066266962618,-0.20995692462850543,-1.3423373419327955,9.776338223588128,-0.001090830782496456,-0.002181661564992912,0.0,3.0625,1.0625,-97.0
1773078184.414783,-0.09206150540379668,1.2556485054643,-7.750066266962618,-0.2099713338214538,-1.3382103632391358,9.78759846382458,-0.001090830782496456,-0.001090830782496456,-0.001090830782496456,2.0,0.75,-97.75
1773078184.435238,-0.09206150540379668,1.2556485054643,-7.750066266962618,-0.2099809229783997,-1.335463905019878,9.795092027916814,-0.001090830782496456,-0.001090830782496456,0.001090830782496456,2.0,0.75,-97.75
1773078184.5105188,-0.09206150540379668,1.2556485054643,-7.750066266962618,-0.2099809229783997,-1.335463905019878,9.795092027916814,-0.001090830782496456,-0.001090830782496456,0.001090830782496456,2.0,0.75,-97.75
1773078184.5407624,-0.09206150540379668,1.2556485054643,-7.750066266962618,-0.20998730445522928,-1.3336361677549105,9.79004357598964,-0.001090830782496456,0.0,0.002181661564992912,2.0,1.5,-98.5
1773078184.5679135,-0.09206150540379668,1.2556485054643,-7.750066266962618,-0.213336662964093,-1.3324198290222375,9.783338775919692,0.0,0.003272492347489368,-0.001090830782496456,2.0,1.5,-98.5
1773078184.5810852,-0.09206150540379668,1.2556485054643,-7.750066266962618,-0.213336662964093,-1.3324198290222375,9.783338775919692,0.0,0.003272492347489368,-0.001090830782496456,2.0,1.5,-98.5
1773078184.6006048,-0.09206150540379668,1.2556485054643,-7.750066266962618,-0.21222051192963637,-1.3349554808903572,9.775531694663345,0.0,0.002181661564992912,-0.001090830782496456,2.375,0.75,-98.1875
1773078184.625541,-0.09206150540379668,1.2556485054643,-7.750066266962618,-0.21147772588442948,-1.3366429288835036,9.770336169298059,-0.001090830782496456,0.002181661564992912,0.001090830782496456,2.375,0.75,-98.1875
1773078184.6429906,-0.09206150540379668,1.2556485054643,-7.750066266962618,-0.2076382983614887,-1.3344207949655937,9.77356882861992,0.001090830782496456,-0.003272492347489368,0.0,2.375,0.75,-98.1875
1773078184.6841202,-0.09206150540379668,1.2556485054643,-7.750066266962618,-0.2076382983614887,-1.3344207949655937,9.77356882861992,0.001090830782496456,-0.003272492347489368,0.0,2.375,0.75,-98.1875
1773078184.7009706,-0.09206150540379668,1.2556485054643,-7.750066266962618,-0.2076382983614887,-1.3344207949655937,9.77356882861992,0.001090830782496456,-0.003272492347489368,0.0,2.375,0.75,-98.1875
1773078184.735765,-0.09206150540379668,1.2556485054643,-7.750066266962618,-0.20508320223418727,-1.3329419896660872,9.775720127287448,-0.001090830782496456,0.002181661564992912,-0.001090830782496456,1.5625,0.75,-99.0
1773078184.7701087,-0.09206150540379668,1.2556485054643,-7.750066266962618,-0.2033828143037621,-1.3252676378439643,9.773806680811788,0.0,0.0,-0.002181661564992912,1.5625,0.75,-99.0
1773078184.809558,-0.09206150540379668,1.2556485054643,-7.750066266962618,-0.2033828143037621,-1.3252676378439643,9.773806680811788,0.0,0.0,-0.002181661564992912,1.5625,0.75,-99.0
1773078184.8308814,-0.09206150540379668,1.2556485054643,-7.750066266962618,-0.2022512251306419,-1.3268506658491073,9.772533303556834,0.0,0.002181661564992912,0.0,2.6875,1.5,-98.25
1773078184.8687115,-0.09206150540379668,1.2556485054643,-7.750066266962618,-0.2014981651766097,-1.3245590415956292,9.771685885218218,-0.001090830782496456,0.0,-0.001090830782496456,2.6875,1.5,-98.25
1773078184.8993757,-0.09206150540379668,1.2556485054643,-7.750066266962618,-0.2014981651766097,-1.3245590415956292,9.771685885218218,-0.001090830782496456,0.0,-0.001090830782496456,2.6875,1.5,-98.25
1773078184.969105,-0.09206150540379668,1.2556485054643,-7.750066266962618,-0.19765190048211279,-1.3230339912540596,9.771121937780153,0.001090830782496456,0.001090830782496456,-0.001090830782496456,2.25,0.75,-98.1875
1773078184.998072,-0.09206150540379668,1.2556485054643,-7.750066266962618,-0.19843736600083633,-1.3220190872876738,9.770746637059826,0.0,0.0,-0.002181661564992912,2.25,0.75,-98.1875
1773078185.0291374,4.840012468588407e-06,1.255582496651622,-7.7496600585947935,-0.19843736600083633,-1.3220190872876738,9.770746637059826,0.0,0.0,-0.002181661564992912,2.25,0.75,-98.1875
1773078185.3799868,4.840012468588407e-06,1.255582496651622,-7.7496600585947935,-0.1971799350479458,-1.3245578495127652,9.775901913354192,3.5054407713719433e-06,-0.002181658748762583,0.002181661564992912,1.9987923365010123,0.7532125832358513,-98.5625
1773078185.5142307,4.840012468588407e-06,1.255582496651622,-7.7496600585947935,-0.19756033701194867,-1.3277678838839313,9.778185058311758,-1.7527203856859717e-06,0.0010908293743812916,0.002181661564992912,1.9971855608087508,1.7532112923709555,-98.5625
1773078185.5536077,4.840012468588407e-06,1.255582496651622,-7.7496600585947935,-0.20100122344174415,-1.3319719564705153,9.778792176580701,0.0010925820947669776,-0.0010890766539956057,0.0,1.5607907838505723,1.0650092154752069,-98.1875
1773078185.6382282,4.840012468588407e-06,1.255582496651622,-7.7496600585947935,-0.20329109492355313,-1.334769719814319,9.779196207006729,0.0,0.0,-0.002181661564992912,1.5607907838505723,1.0650092154752069,-98.1875
1773078185.6881204,4.840012468588407e-06,1.255582496651622,-7.7496600585947935,-0.20482572850351496,-1.3299413852880917,9.779465084741934,0.0010855712132242336,0.003274240843529561,0.0,1.247588222880488,1.5020065333179833,-97.75
1773078185.7639253,4.840012468588407e-06,1.255582496651622,-7.7496600585947935,-0.2058470100079992,-1.3267281825969182,9.782989131578471,-0.002178153307991211,-0.0021851641895339552,0.0,1.247588222880488,1.5020065333179833,-97.75
1773078185.8325853,4.840012468588407e-06,1.255582496651622,-7.7496600585947935,-0.20652666144077156,-1.3245898320997682,9.778644121967366,0.0010908293743812916,1.7527203856859717e-06,-0.002181661564992912,1.9987923365010123,0.7532125832358513,-97.375
1773078185.8686655,4.840012468588407e-06,1.255582496651622,-7.7496600585947935,-0.20697358703289837,-1.326511891120087,9.765717231486155,-0.0010873239336099197,-0.0021834114691482694,-0.001090830782496456,1.9987923365010123,0.7532125832358513,-97.375
1773078185.9121044,4.840012468588407e-06,1.255582496651622,-7.7496600585947935,-0.20727638586615196,-1.3244458925380713,9.757114530273737,0.0,0.0,-0.001090830782496456,2.6850863672622003,1.5043162733756092,-97.0
1773078185.9475539,4.840012468588407e-06,1.255582496651622,-7.7496600585947935,-0.20727638586615196,-1.3244458925380713,9.757114530273737,0.0,0.0,-0.001090830782496456,2.6850863672622003,1.5043162733756092,-97.0
1773078185.9831758,4.840012468588407e-06,1.255582496651622,-7.7496600585947935,-0.20412741287378633,-1.3264107261055087,9.758079752129982,-0.0010890766539956055,-0.0010925820947669776,0.0,2.6850863672622003,1.5043162733756092,-97.0
1773078186.0180588,4.840012468588407e-06,1.255582496651622,-7.7496600585947935,-0.20203718136787938,-1.3243731935067773,9.758722096493077,-1.7527203856859717e-06,0.0010908293743812916,0.0,1.9987923365010123,0.7532125832358513,-98.25
1773078186.041842,4.840012468588407e-06,1.255582496651622,-7.7496600585947935,-0.20203718136787938,-1.3243731935067773,9.758722096493077,-1.7527203856859717e-06,0.0010908293743812916,0.0,1.9987923365010123,0.7532125832358513,-98.25
1773078186.0741525,4.840012468588407e-06,1.255582496651622,-7.7496600585947935,-0.20064078080593495,-1.326362345712284,9.75914956949126,-1.7527203856859717e-06,0.0010908293743812916,0.0,1.9987923365010123,0.7532125832358513,-98.25
1773078186.1013484,4.840012468588407e-06,1.255582496651622,-7.7496600585947935,-0.20064078080593495,-1.326362345712284,9.75914956949126,-1.7527203856859717e-06,0.0010908293743812916,0.0,1.9987923365010123,0.7532125832358513,-98.25
1773078186.137701,4.840012468588407e-06,1.255582496651622,-7.7496600585947935,-0.19636638444154514,-1.3276807294405837,9.759434047996365,-0.0021799060283768973,-0.0010943348151526637,0.001090830782496456,2.6857893316275647,1.0668168381290013,-98.5625
1773078186.1731057,4.840012468588407e-06,1.255582496651622,-7.7496600585947935,-0.19352182140917976,-1.3285580990844557,9.762968476970999,-0.0010890766539956055,-0.0010925820947669776,0.001090830782496456,2.6857893316275647,1.0668168381290013,-98.5625
1773078186.2087624,4.840012468588407e-06,1.255582496651622,-7.7496600585947935,-0.19832438610963513,-1.3258076210807177,9.765320599971458,0.0,0.0,-0.002181661564992912,2.2482898963809568,1.0661138737636369,-97.5
1773078186.2773921,4.840012468588407e-06,1.255582496651622,-7.7496600585947935,-0.2015204392696253,-1.3239772086940826,9.766885911553329,1.7527203856859717e-06,-0.0010908293743812916,0.001090830782496456,2.2482898963809568,1.0661138737636369,-97.5
1773078186.3152184,4.840012468588407e-06,1.255582496651622,-7.7496600585947935,-0.20363662725698717,-1.3294493044762874,9.771272720632707,-0.0010925820947669776,0.0010890766539956057,-0.001090830782496456,3.0596841892647992,1.7549184915439835,-97.375
1773078186.3379645,4.840012468588407e-06,1.255582496651622,-7.7496600585947935,-0.20363662725698717,-1.3294493044762874,9.771272720632707,-0.0010925820947669776,0.0010890766539956057,-0.001090830782496456,3.0596841892647992,1.7549184915439835,-97.375
1773078186.3652287,4.840012468588407e-06,1.255582496651622,-7.7496600585947935,-0.2050449267232078,-1.3330909230920294,9.774192093071164,-0.0010925820947669776,0.0010890766539956057,0.0,3.0596841892647992,1.7549184915439835,-97.375
1773078186.3911448,4.840012468588407e-06,1.255582496651622,-7.7496600585947935,-0.2050449267232078,-1.3330909230920294,9.774192093071164,-0.0010925820947669776,0.0010890766539956057,0.0,3.0596841892647992,1.7549184915439835,-97.375
1773078186.4502392,4.840012468588407e-06,1.255582496651622,-7.7496600585947935,-0.2059928839746002,-1.328824164822796,9.77948001452475,0.0,0.0,0.001090830782496456,2.3732897350228446,1.0663147207251695,-98.1875
1773078186.4908702,4.840012468588407e-06,1.255582496651622,-7.7496600585947935,-0.20662911378020474,-1.3226395774682023,9.77965395547484,-0.0010890766539956055,-0.0010925820947669776,0.001090830782496456,2.3732897350228446,1.0663147207251695,-98.1875
1773078186.5532908,0.6049597868371428,0.26841385488883374,125.38822885042732,-0.20705251760868196,-1.3185238036700875,9.779769711234076,0.002183411469148269,-0.0010873239336099197,0.001090830782496456,1.5607907838505723,1.0650092154752069,-98.1875
1773078186.6098003,4.840012468588407e-06,1.255582496651622,-7.7496600585947935,-0.20397843104921234,-1.322469642117933,9.776501633691453,-0.0010943348151526634,0.0021799060283768973,-0.001090830782496456,1.5607907838505723,1.0650092154752069,-98.1875
1773078186.642924,4.840012468588407e-06,1.255582496651622,-7.7496600585947935,-0.20193266078368222,-1.3250955535270703,9.777671876300975,0.0010890766539956055,0.0010925820947669776,0.0,1.247588222880488,1.5020065333179833,-98.1875
1773078186.6827288,4.840012468588407e-06,1.255582496651622,-7.7496600585947935,-0.20392170575813445,-1.323503335691446,9.771760436270506,3.5054407713719433e-06,-0.002181658748762583,-0.001090830782496456,1.247588222880488,1.5020065333179833,-98.1875
1773078186.7289963,4.840012468588407e-06,1.255582496651622,-7.7496600585947935,-0.20392170575813445,-1.323503335691446,9.771760436270506,3.5054407713719433e-06,-0.002181658748762583,-0.001090830782496456,1.247588222880488,1.5020065333179833,-98.1875
1773078186.774078,4.840012468588407e-06,1.255582496651622,-7.7496600585947935,-0.20524539296954422,-1.3224437325080767,9.774516662379979,0.0010908293743812916,1.7527203856859717e-06,0.001090830782496456,2.6862914490313967,0.7543172415242811,-98.1875
1773078186.8296876,4.840012468588407e-06,1.255582496651622,-7.7496600585947935,-0.20278118463295033,-1.3217332035819085,9.77635090006677,-0.002178153307991211,-0.0021851641895339552,-0.001090830782496456,2.6862914490313967,0.7543172415242811,-98.1875
1773078186.8635356,4.840012468588407e-06,1.255582496651622,-7.7496600585947935,-0.20114128151195784,-1.3212603545186716,9.777571564757553,5.258161157057915e-06,-0.003272488123143875,0.001090830782496456,1.9971855608087508,1.7532112923709555,-97.75
1773078186.9514422,4.840012468588407e-06,1.255582496651622,-7.7496600585947935,-0.2000499443038555,-1.3209456787491574,9.775038791766232,0.0,0.0,0.0,1.9971855608087508,1.7532112923709555,-97.75
1773078187.0037432,4.840012468588407e-06,1.255582496651622,-7.7496600585947935,-0.20266877897213093,-1.3207416403838839,9.773353259633435,0.0,0.0,-0.001090830782496456,2.37258677065748,1.5038141559717777,-98.1875
1773078187.0307665,4.840012468588407e-06,1.255582496651622,-7.7496600585947935,-0.2044062093453889,-1.323950962520284,9.765541333413047,0.0,0.0,0.001090830782496456,2.37258677065748,1.5038141559717777,-98.1875
1773078187.0793183,4.840012468588407e-06,1.255582496651622,-7.7496600585947935,-0.2044062093453889,-1.323950962520284,9.765541333413047,0.0,0.0,0.001090830782496456,2.37258677065748,1.5038141559717777,-98.1875
1773078187.1478965,4.840012468588407e-06,1.255582496651622,-7.7496600585947935,-0.20556244985042313,-1.3260867305515813,9.770377918900271,7.010881542743887e-06,-0.004363317497525166,0.002181661564992912,1.5612929012544041,0.7525096188704868,-98.25
1773078187.1919494,4.840012468588407e-06,1.255582496651622,-7.7496600585947935,-0.20633191499047068,-1.3275080603183174,9.763561277391862,1.7527203856859717e-06,-0.0010908293743812916,-0.001090830782496456,1.5612929012544041,0.7525096188704868,-98.25
1773078187.2272708,4.840012468588407e-06,1.255582496651622,-7.7496600585947935,-0.20684936028986273,-1.3251088320115543,9.75902487861489,-0.002181658748762583,-3.5054407713719433e-06,-0.001090830782496456,3.0600858831878646,1.5049188142602075,-99.0
1773078187.2532477,4.840012468588407e-06,1.255582496651622,-7.7496600585947935,-0.20684936028986273,-1.3251088320115543,9.75902487861489,-0.002181658748762583,-3.5054407713719433e-06,-0.001090830782496456,3.0600858831878646,1.5049188142602075,-99.0
1773078187.3059297,4.840012468588407e-06,1.255582496651622,-7.7496600585947935,-0.20719371435636538,-1.3235121723745398,9.75600595590371,0.0010925820947669776,-0.0010890766539956057,-0.002181661564992912,3.0600858831878646,1.5049188142602075,-99.0
1773078187.338247,4.840012468588407e-06,1.255582496651622,-7.7496600585947935,-0.20407777075170386,-1.3224442383777841,9.760687119977634,-1.7527203856859717e-06,0.0010908293743812916,0.0,2.6862914490313967,0.7543172415242811,-97.75
1773078187.3616421,4.840012468588407e-06,1.255582496651622,-7.7496600585947935,-0.20407777075170386,-1.3224442383777841,9.760687119977634,-1.7527203856859717e-06,0.0010908293743812916,0.0,2.6862914490313967,0.7543172415242811,-97.75
1773078187.3793564,4.840012468588407e-06,1.255582496651622,-7.7496600585947935,-0.20200414509017234,-1.3217335402325479,9.76714749408412,1.7527203856859717e-06,-0.0010908293743812916,0.002181661564992912,2.6862914490313967,0.7543172415242811,-97.75
1773078187.4307945,4.840012468588407e-06,1.255582496651622,-7.7496600585947935,-0.20062417037633953,-1.3212605785559115,9.771446800884881,5.258161157057915e-06,-0.003272488123143875,0.0,2.2482898963809568,1.0661138737636369,-97.75
1773078187.4762776,4.840012468588407e-06,1.255582496651622,-7.7496600585947935,-0.1997058126196114,-1.320945827843438,9.774307941534383,-0.0010890766539956055,-0.0010925820947669776,0.0,2.2482898963809568,1.0661138737636369,-97.75
1773078187.519107,4.840012468588407e-06,1.255582496651622,-7.7496600585947935,-0.19908928094705794,-1.3240814721495149,9.776211998675592,-0.0010943348151526634,0.0021799060283768973,0.0,1.9971855608087508,1.7532112923709555,-97.75
1773078187.6058903,4.840012468588407e-06,1.255582496651622,-7.7496600585947935,-0.19868436085026286,-1.322823101018535,9.777479127433354,0.0010908293743812916,1.7527203856859717e-06,-0.002181661564992912,1.9971855608087508,1.7532112923709555,-97.75
1773078187.6368902,4.840012468588407e-06,1.255582496651622,-7.7496600585947935,-0.19868436085026286,-1.322823101018535,9.777479127433354,0.0010908293743812916,1.7527203856859717e-06,-0.002181661564992912,1.9971855608087508,1.7532112923709555,-97.75
1773078187.7092643,4.840012468588407e-06,1.255582496651622,-7.7496600585947935,-0.1984148910490996,-1.3219856690877945,9.778322387466888,-0.0010890766539956055,-0.0010925820947669776,0.0,0.8732916713201884,1.0639045571867771,-97.75
1773078187.7566717,4.840012468588407e-06,1.255582496651622,-7.7496600585947935,-0.19823556190660038,-1.3214283674926142,9.775538455892054,-0.0010890766539956055,-0.0010925820947669776,0.001090830782496456,0.8732916713201884,1.0639045571867771,-97.75
1773078187.788813,4.840012468588407e-06,1.255582496651622,-7.7496600585947935,-0.19823556190660038,-1.3214283674926142,9.775538455892054,-0.0010890766539956055,-0.0010925820947669776,0.001090830782496456,0.8732916713201884,1.0639045571867771,-97.75
1773078187.8026628,4.840012468588407e-06,1.255582496651622,-7.7496600585947935,-0.19811084552132568,-1.3244025968957205,9.773685780527556,-0.0010908293743812916,-1.7527203856859717e-06,-0.001090830782496456,1.9982902190971805,1.0657121798405713,-97.0
1773078187.8261435,4.840012468588407e-06,1.255582496651622,-7.7496600585947935,-0.2013729555493308,-1.3263872881833478,9.775797957475541,-0.0010925820947669776,0.0010890766539956057,0.001090830782496456,1.9982902190971805,1.0657121798405713,-97.0
1773078187.8536615,4.840012468588407e-06,1.255582496651622,-7.7496600585947935,-0.20019874594357942,-1.32770270322063,9.777203587639864,-0.0010908293743812916,-1.7527203856859717e-06,0.001090830782496456,1.9982902190971805,1.0657121798405713,-97.0
1773078187.8820565,4.840012468588407e-06,1.255582496651622,-7.7496600585947935,-0.20019874594357942,-1.32770270322063,9.777203587639864,-0.0010908293743812916,-1.7527203856859717e-06,0.001090830782496456,1.9982902190971805,1.0657121798405713,-97.0
1773078187.939232,4.840012468588407e-06,1.255582496651622,-7.7496600585947935,-0.20276242995696478,-1.328583472077972,9.781484130519623,0.0010890766539956055,0.0010925820947669776,0.0,1.9993948773856105,0.3782130673101872,-97.0625
1773078187.9567285,4.840012468588407e-06,1.255582496651622,-7.7496600585947935,-0.20446853302964577,-1.3291696139137001,9.777642560574664,0.0,0.0,-0.001090830782496456,1.9993948773856105,0.3782130673101872,-97.0625
1773078187.9751048,4.840012468588407e-06,1.255582496651622,-7.7496600585947935,-0.20446853302964577,-1.3291696139137001,9.777642560574664,0.0,0.0,-0.001090830782496456,1.9993948773856105,0.3782130673101872,-97.0625
1773078187.9942684,4.840012468588407e-06,1.255582496651622,-7.7496600585947935,-0.20560392556609494,-1.3295596847577438,9.775086038689443,-0.0010908293743812916,-1.7527203856859717e-06,0.001090830782496456,1.9993948773856105,0.3782130673101872,-97.0625
1773078188.0145946,4.840012468588407e-06,1.255582496651622,-7.7496600585947935,-0.20635951661593616,-1.3298192725470779,9.77003959022573,-0.0010925820947669776,0.0010890766539956057,0.001090830782496456,1.997587254731816,1.5032116150871795,-97.0
1773078188.031924,4.840012468588407e-06,1.255582496651622,-7.7496600585947935,-0.20686235401910041,-1.3299920253210944,9.766681235145652,0.0010890766539956055,0.0010925820947669776,-0.001090830782496456,1.997587254731816,1.5032116150871795,-97.0
1773078188.0940409,4.840012468588407e-06,1.255582496651622,-7.7496600585947935,-0.20719698669384437,-1.3301069903624272,9.767791399062464,-5.258161157057915e-06,0.003272488123143875,-0.001090830782496456,1.997587254731816,1.5032116150871795,-97.0
1773078188.1232395,4.840012468588407e-06,1.255582496651622,-7.7496600585947935,-0.2074196810007946,-1.3301834983131906,9.768530200747758,0.0010960875355383495,-0.003270735402758189,0.001090830782496456,2.6857893316275647,1.0668168381290013,-97.5
1773078188.1368778,4.840012468588407e-06,1.255582496651622,-7.7496600585947935,-0.2074196810007946,-1.3301834983131906,9.768530200747758,0.0010960875355383495,-0.003270735402758189,0.001090830782496456,2.6857893316275647,1.0668168381290013,-97.5
1773078188.152683,4.840012468588407e-06,1.255582496651622,-7.7496600585947935,-0.20756788157441158,-1.330234413499774,9.769021865016366,-3.5054407713719433e-06,0.002181658748762583,-0.001090830782496456,2.6857893316275647,1.0668168381290013,-97.5
1773078188.1701403,4.840012468588407e-06,1.255582496651622,-7.7496600585947935,-0.20766650740064477,-1.3302682969876851,9.769349062094875,0.0,0.0,0.001090830782496456,2.6857893316275647,1.0668168381290013,-97.5
1773078188.1854825,4.840012468588407e-06,1.255582496651622,-7.7496600585947935,-0.20766650740064477,-1.3302682969876851,9.769349062094875,0.0,0.0,0.001090830782496456,2.6857893316275647,1.0668168381290013,-97.5
1773078188.1996124,4.840012468588407e-06,1.255582496651622,-7.7496600585947935,-0.2077267669421011,-1.333635953459619,9.769566808095592,-0.0010925820947669776,0.0010890766539956057,0.001090830782496456,3.061290964957061,0.7549197824088792,-97.75
1773078188.2158017,4.840012468588407e-06,1.255582496651622,-7.7496600585947935,-0.2077668689937971,-1.3358770912225033,9.769711715626686,-0.0010960875355383495,0.003270735402758189,0.0,3.061290964957061,0.7549197824088792,-97.75
1773078188.245762,4.840012468588407e-06,1.255582496651622,-7.7496600585947935,-0.20779893130541074,-1.3340234359793213,9.773153261677226,-0.0010908293743812916,-1.7527203856859717e-06,0.0,3.061290964957061,0.7549197824088792,-97.75
1773078188.2688508,4.840012468588407e-06,1.255582496651622,-7.7496600585947935,-0.20782026841563012,-1.3327898491216696,9.775443572129273,-0.0010890766539956055,-0.0010925820947669776,0.002181661564992912,1.560087819485208,1.502508650721815,-99.0
1773078188.3218422,4.840012468588407e-06,1.255582496651622,-7.7496600585947935,-0.20783446802412994,-1.3319689108479704,9.776967748150666,0.0021799060283768973,0.0010943348151526637,-0.001090830782496456,1.560087819485208,1.502508650721815,-99.0
1773078188.3631608,4.840012468588407e-06,1.255582496651622,-7.7496600585947935,-0.20449343547155527,-1.334762318142358,9.774636958559421,0.0,0.0,-0.001090830782496456,3.4993929410882667,0.3806232308485796,-97.75
1773078188.3800182,4.840012468588407e-06,1.255582496651622,-7.7496600585947935,-0.20449343547155527,-1.334762318142358,9.774636958559421,0.0,0.0,-0.001090830782496456,3.4993929410882667,0.3806232308485796,-97.75
1773078188.3980858,4.840012468588407e-06,1.255582496651622,-7.7496600585947935,-0.20227001562959587,-1.3366212994923687,9.773085844123074,-0.0010890766539956055,-0.0010925820947669776,0.0,3.4993929410882667,0.3806232308485796,-97.75
1773078188.4107397,4.840012468588407e-06,1.255582496651622,-7.7496600585947935,-0.20227001562959587,-1.3366212994923687,9.773085844123074,-0.0010890766539956055,-0.0010925820947669776,0.0,3.4993929410882667,0.3806232308485796,-97.75
1773078188.426086,4.840012468588407e-06,1.255582496651622,-7.7496600585947935,-0.20413546195123103,-1.3378638056587977,9.772053594792768,-0.0010890766539956055,-0.0010925820947669776,0.0,3.4993929410882667,0.3806232308485796,-97.75
1773078188.4446445,4.840012468588407e-06,1.255582496651622,-7.7496600585947935,-0.20538764532823683,-1.3320004648543888,9.774711756101748,-3.5054407713719433e-06,0.002181658748762583,0.0,1.2471865289574227,1.7520062106017593,-98.25
1773078188.4859707,4.840012468588407e-06,1.255582496651622,-7.7496600585947935,-0.20538764532823683,-1.3320004648543888,9.774711756101748,-3.5054407713719433e-06,0.002181658748762583,0.0,1.2471865289574227,1.7520062106017593,-98.25
1773078188.509151,4.840012468588407e-06,1.255582496651622,-7.7496600585947935,-0.20287585198859728,-1.3280931022026838,9.77313562105195,0.0010873239336099197,0.0021834114691482694,-0.002181661564992912,1.2471865289574227,1.7520062106017593,-98.25
1773078188.5549848,4.840012468588407e-06,1.255582496651622,-7.7496600585947935,-0.1978591741904051,-1.3254874211618959,9.77543183249021,-0.0010908293743812916,-1.7527203856859717e-06,-0.001090830782496456,2.2482898963809568,1.0661138737636369,-98.5625
1773078188.5719106,4.840012468588407e-06,1.255582496651622,-7.7496600585947935,-0.19786036370072405,-1.327103851770027,9.773614823844689,-0.0021851641895339552,0.0021781533079912115,-0.002181661564992912,2.2482898963809568,1.0661138737636369,-98.5625
1773078188.5916877,4.840012468588407e-06,1.255582496651622,-7.7496600585947935,-0.19786036370072405,-1.327103851770027,9.773614823844689,-0.0021851641895339552,0.0021781533079912115,-0.002181661564992912,2.2482898963809568,1.0661138737636369,-98.5625
1773078188.623215,4.840012468588407e-06,1.255582496651622,-7.7496600585947935,-0.1978665301507328,-1.3248344608937932,9.772405624888412,0.002181658748762583,3.5054407713719433e-06,0.0,3.060788847553229,1.0674193790135993,-99.0
1773078188.6420372,4.840012468588407e-06,1.255582496651622,-7.7496600585947935,-0.1978665301507328,-1.3248344608937932,9.772405624888412,0.002181658748762583,3.5054407713719433e-06,0.0,3.060788847553229,1.0674193790135993,-99.0
1773078188.6688156,4.840012468588407e-06,1.255582496651622,-7.7496600585947935,-0.1978665301507328,-1.3248344608937932,9.772405624888412,0.002181658748762583,3.5054407713719433e-06,0.0,3.060788847553229,1.0674193790135993,-99.0
1773078188.7365818,4.840012468588407e-06,1.255582496651622,-7.7496600585947935,-0.19786441308029282,-1.3278903882549367,9.771065392041118,-5.258161157057915e-06,0.003272488123143875,-0.001090830782496456,1.5624979830236003,0.002510587019158701,-97.0625
1773078188.7760098,4.840012468588407e-06,1.255582496651622,-7.7496600585947935,-0.19786385012342209,-1.3287029995275443,9.770709006502155,-0.0010890766539956055,-0.0010925820947669776,0.003272492347489368,1.5624979830236003,0.002510587019158701,-97.0625
1773078188.7968931,4.840012468588407e-06,1.255582496651622,-7.7496600585947935,-0.19786385012342209,-1.3287029995275443,9.770709006502155,-0.0010890766539956055,-0.0010925820947669776,0.003272492347489368,1.5624979830236003,0.002510587019158701,-97.0625
1773078188.8300827,4.840012468588407e-06,1.255582496651622,-7.7496600585947935,-0.20121395771532455,-1.3259040507069495,9.777162059321702,-1.7527203856859717e-06,0.0010908293743812916,0.0,2.3737918524266766,0.7538151241204494,-98.5625
1773078188.8721995,4.840012468588407e-06,1.255582496651622,-7.7496600585947935,-0.20344341689458176,-1.3240413815331504,9.781456493887786,0.0,0.0,0.001090830782496456,2.3737918524266766,0.7538151241204494,-98.5625
1773078188.9334366,4.840012468588407e-06,1.255582496651622,-7.7496600585947935,-0.20492709707368656,-1.3228017960053653,9.780969280412219,-0.0010890766539956055,-0.0010925820947669776,0.001090830782496456,2.2482898963809568,1.0661138737636369,-97.0625
1773078188.9763072,4.840012468588407e-06,1.255582496651622,-7.7496600585947935,-0.20591446965908727,-1.3219768656837017,9.770609710164802,-0.0010925820947669776,0.0010890766539956057,0.002181661564992912,2.2482898963809568,1.0661138737636369,-97.0625
1773078188.9945552,4.840012468588407e-06,1.255582496651622,-7.7496600585947935,-0.20657155508499697,-1.3214278837697102,9.770405755303766,0.0,0.0,0.0,2.2482898963809568,1.0661138737636369,-97.75
1773078189.020177,4.840012468588407e-06,1.255582496651622,-7.7496600585947935,-0.20700883809581472,-1.3210625424384785,9.766924913914753,-1.7527203856859717e-06,0.0010908293743812916,0.001090830782496456,2.2482898963809568,1.0661138737636369,-97.75
1773078189.0522335,4.840012468588407e-06,1.255582496651622,-7.7496600585947935,-0.2072944702105634,-1.3241645192529061,9.76795356456123,-0.0010960875355383495,0.003270735402758189,0.001090830782496456,2.2482898963809568,1.0661138737636369,-97.75
1773078189.0731719,4.840012468588407e-06,1.255582496651622,-7.7496600585947935,-0.2072944702105634,-1.3241645192529061,9.76795356456123,-0.0010960875355383495,0.003270735402758189,0.001090830782496456,2.2482898963809568,1.0661138737636369,-97.75
1773078189.109167,4.840012468588407e-06,1.255582496651622,-7.7496600585947935,-0.2020505653229959,-1.3209034728164266,9.77243879583088,0.0010855712132242336,0.003274240843529561,-0.001090830782496456,2.2499970955539847,0.0036152453075885293,-98.5625
1773078189.1278548,4.840012468588407e-06,1.255582496651622,-7.7496600585947935,-0.20400554475614693,-1.3173684454178904,9.774968103089636,-0.002183411469148269,0.0010873239336099197,0.0,2.2499970955539847,0.0036152453075885293,-98.5625
1773078189.164231,4.840012468588407e-06,1.255582496651622,-7.7496600585947935,-0.20400554475614693,-1.3173684454178904,9.774968103089636,-0.002183411469148269,0.0010873239336099197,0.0,2.2499970955539847,0.0036152453075885293,-98.5625
1773078189.1920893,4.840012468588407e-06,1.255582496651622,-7.7496600585947935,-0.20529581204199934,-1.3217061389514722,9.773306217108805,-0.0010925820947669776,0.0010890766539956057,0.0,2.2475869320155923,1.5036133090102448,-97.5
1773078189.2201483,4.840012468588407e-06,1.255582496651622,-7.7496600585947935,-0.20615447050750416,-1.3245928255428594,9.772200250553045,-0.0010978402559240355,0.0043615647771394804,0.0,2.2475869320155923,1.5036133090102448,-97.5
1773078189.2764728,4.840012468588407e-06,1.255582496651622,-7.7496600585947935,-0.20673127296863325,-1.323168775833793,9.771464242164642,-3.5054407713719433e-06,0.002181658748762583,-0.001090830782496456,1.9982902190971805,1.0657121798405713,-98.25
1773078189.304704,4.840012468588407e-06,1.255582496651622,-7.7496600585947935,-0.20673127296863325,-1.323168775833793,9.771464242164642,-3.5054407713719433e-06,0.002181658748762583,-0.001090830782496456,1.9982902190971805,1.0657121798405713,-98.25
1773078189.35651,4.840012468588407e-06,1.255582496651622,-7.7496600585947935,-0.207115128563209,-1.3222210866600872,9.770974436803913,-5.258161157057915e-06,0.003272488123143875,0.0,1.9982902190971805,1.0657121798405713,-98.25
1773078189.3967006,4.840012468588407e-06,1.255582496651622,-7.7496600585947935,-0.2040254727842191,-1.3215850352571885,9.77399358851515,-0.0010890766539956055,-0.0010925820947669776,-0.001090830782496456,2.2475869320155923,1.5036133090102448,-97.75
1773078189.4323785,4.840012468588407e-06,1.255582496651622,-7.7496600585947935,-0.20196934137701783,-1.321161750153719,9.776002800252845,-0.0010943348151526634,0.0021799060283768973,-0.002181661564992912,2.2475869320155923,1.5036133090102448,-97.75
1773078189.458179,4.840012468588407e-06,1.255582496651622,-7.7496600585947935,-0.20060100889401813,-1.3208800586457645,9.777339908219915,-3.5054407713719433e-06,0.002181658748762583,0.0,1.5607907838505723,1.0650092154752069,-98.25
1773078189.5049396,4.840012468588407e-06,1.255582496651622,-7.7496600585947935,-0.20303550630108932,-1.3206979709381004,9.778229738635526,0.0,0.0,0.001090830782496456,1.5607907838505723,1.0650092154752069,-98.25
1773078189.5508437,4.840012468588407e-06,1.255582496651622,-7.7496600585947935,-0.20465563713037727,-1.3205767936027029,9.775476799129738,-3.5054407713719433e-06,0.002181658748762583,0.001090830782496456,2.6862914490313967,0.7543172415242811,-98.1875
1773078189.6006832,4.840012468588407e-06,1.255582496651622,-7.7496600585947935,-0.20573381609922123,-1.3204961514396354,9.773644748640985,1.7527203856859717e-06,-0.0010908293743812916,0.001090830782496456,2.6862914490313967,0.7543172415242811,-98.1875
1773078189.6375332,4.840012468588407e-06,1.255582496651622,-7.7496600585947935,-0.20310622476970652,-1.3204371101367667,9.772425539506065,-0.0021851641895339552,0.0021781533079912115,-0.001090830782496456,1.2487933046496842,0.7520075014666552,-97.0
1773078189.666371,4.840012468588407e-06,1.255582496651622,-7.7496600585947935,-0.20135221724785363,-1.3237429261984743,9.771614169446234,0.0021799060283768973,0.0010943348151526637,-0.001090830782496456,1.2487933046496842,0.7520075014666552,-97.0
1773078189.7113345,4.840012468588407e-06,1.255582496651622,-7.7496600585947935,-0.2001849448356084,-1.3259429098591555,9.771074211735014,5.258161157057915e-06,-0.003272488123143875,0.001090830782496456,1.5612929012544041,0.7525096188704868,-98.25
1773078189.7295327,4.840012468588407e-06,1.255582496651622,-7.7496600585947935,-0.2001849448356084,-1.3259429098591555,9.771074211735014,5.258161157057915e-06,-0.003272488123143875,0.001090830782496456,1.5612929012544041,0.7525096188704868,-98.25
1773078189.7707958,4.840012468588407e-06,1.255582496651622,-7.7496600585947935,-0.19940813808454638,-1.327406974409911,9.77071487590992,1.7527203856859717e-06,-0.0010908293743812916,0.0,1.5612929012544041,0.7525096188704868,-98.25
1773078189.8029573,4.840012468588407e-06,1.255582496651622,-7.7496600585947935,-0.20224166410262592,-1.3250415604687136,9.770475741932366,0.0010908293743812916,1.7527203856859717e-06,-0.001090830782496456,1.5607907838505723,1.0650092154752069,-99.5
1773078189.8633654,4.840012468588407e-06,1.255582496651622,-7.7496600585947935,-0.20224166410262592,-1.3250415604687136,9.770475741932366,0.0010908293743812916,1.7527203856859717e-06,-0.001090830782496456,1.5607907838505723,1.0650092154752069,-99.5
1773078189.9142373,4.840012468588407e-06,1.255582496651622,-7.7496600585947935,-0.2041327188592775,-1.3201222965250194,9.773661712648924,0.0010890766539956055,0.0010925820947669776,0.001090830782496456,1.5607907838505723,1.0650092154752069,-99.5
1773078189.9533288,4.840012468588407e-06,1.255582496651622,-7.7496600585947935,-0.19730697504999303,-1.3180007412267485,9.773847816861604,-0.0010925820947669776,0.0010890766539956057,0.0,2.247185238092527,1.753612986294021,-97.75
1773078190.036009,4.840012468588407e-06,1.255582496651622,-7.7496600585947935,-0.19730697504999303,-1.3180007412267485,9.773847816861604,-0.0010925820947669776,0.0010890766539956057,0.0,2.247185238092527,1.753612986294021,-97.75
1773078190.0764,4.840012468588407e-06,1.255582496651622,-7.7496600585947935,-0.19205431265484088,-1.3192837113153217,9.76835899165467,-1.7527203856859717e-06,0.0010908293743812916,0.0,1.2482911872458524,1.0645070980713751,-96.5625
1773078190.0996447,4.840012468588407e-06,1.255582496651622,-7.7496600585947935,-0.19399729319335818,-1.3229753521671115,9.772253038984767,-0.0010925820947669776,0.0010890766539956057,0.0,1.2482911872458524,1.0645070980713751,-96.5625
1773078190.145369,4.840012468588407e-06,1.255582496651622,-7.7496600585947935,-0.19399729319335818,-1.3229753521671115,9.772253038984767,-0.0010925820947669776,0.0010890766539956057,0.0,1.2482911872458524,1.0645070980713751,-96.5625
1773078190.2041337,4.840012468588407e-06,1.255582496651622,-7.7496600585947935,-0.19949593067444119,-1.3270724096118292,9.776569061681965,0.0010890766539956055,0.0010925820947669776,-0.001090830782496456,1.9987923365010123,0.7532125832358513,-97.5
1773078190.2347674,4.840012468588407e-06,1.255582496651622,-7.7496600585947935,-0.19949593067444119,-1.3270724096118292,9.776569061681965,0.0010890766539956055,0.0010925820947669776,-0.001090830782496456,1.9987923365010123,0.7532125832358513,-97.5
1773078190.2911603,4.840012468588407e-06,1.255582496651622,-7.7496600585947935,-0.1989496068570821,-1.3281586438779764,9.77771674887544,-0.0010908293743812916,-1.7527203856859717e-06,0.001090830782496456,2.6857893316275647,1.0668168381290013,-97.75
1773078190.3252904,4.840012468588407e-06,1.255582496651622,-7.7496600585947935,-0.1927782169449343,-1.326008527931326,9.780107781519726,-0.0010908293743812916,-1.7527203856859717e-06,0.001090830782496456,1.5596861255621426,1.752508328005591,-97.5
1773078190.3804784,4.840012468588407e-06,1.255582496651622,-7.7496600585947935,-0.19113931086682168,-1.3241001602705276,9.7834168391047,0.0,0.0,0.0,1.5596861255621426,1.752508328005591,-97.5
1773078190.4137084,4.840012468588407e-06,1.255582496651622,-7.7496600585947935,-0.1967334771139032,-1.3261860199877202,9.785618979962903,-0.0010908293743812916,-1.7527203856859717e-06,-0.001090830782496456,1.2487933046496842,0.7520075014666552,-97.75
1773078190.4356105,4.840012468588407e-06,1.255582496651622,-7.7496600585947935,-0.1967334771139032,-1.3261860199877202,9.785618979962903,-0.0010908293743812916,-1.7527203856859717e-06,-0.001090830782496456,1.2487933046496842,0.7520075014666552,-97.75
1773078190.4812217,4.840012468588407e-06,1.255582496651622,-7.7496600585947935,-0.1971112248711723,-1.327568761484753,9.783739368397192,-0.0010890766539956055,-0.0010925820947669776,0.001090830782496456,1.2487933046496842,0.7520075014666552,-97.75
1773078190.5166101,4.840012468588407e-06,1.255582496651622,-7.7496600585947935,-0.2007130940173273,-1.3251492279597408,9.77914339618953,0.0010873239336099197,0.0021834114691482694,0.0,1.9987923365010123,0.7532125832358513,-98.1875
1773078190.5363796,4.840012468588407e-06,1.255582496651622,-7.7496600585947935,-0.2007130940173273,-1.3251492279597408,9.77914339618953,0.0010873239336099197,0.0021834114691482694,0.0,1.9987923365010123,0.7532125832358513,-98.1875
1773078190.5507197,4.840012468588407e-06,1.255582496651622,-7.7496600585947935,-0.2031100976985787,-1.3235390554268056,9.776084828025704,0.002178153307991211,0.0021851641895339552,0.001090830782496456,1.9987923365010123,0.7532125832358513,-98.1875
1773078190.5682173,4.840012468588407e-06,1.255582496651622,-7.7496600585947935,-0.2031100976985787,-1.3235390554268056,9.776084828025704,0.002178153307991211,0.0021851641895339552,0.001090830782496456,1.9987923365010123,0.7532125832358513,-98.1875
1773078190.5932279,4.840012468588407e-06,1.255582496651622,-7.7496600585947935,-0.20469990202798674,-1.325812610982175,9.774049385079124,3.5054407713719433e-06,-0.002181658748762583,0.0,2.2487920137847888,0.7536142771589167,-98.1875
1773078190.6238549,4.840012468588407e-06,1.255582496651622,-7.7496600585947935,-0.20575789904992975,-1.327325636806994,9.77269482053556,0.0010873239336099197,0.0021834114691482694,0.0,2.2487920137847888,0.7536142771589167,-98.1875
1773078190.6445682,4.840012468588407e-06,1.255582496651622,-7.7496600585947935,-0.20575789904992975,-1.327325636806994,9.77269482053556,0.0010873239336099197,0.0021834114691482694,0.0,2.2487920137847888,0.7536142771589167,-98.1875
1773078190.6948514,4.840012468588407e-06,1.255582496651622,-7.7496600585947935,-0.20646198424943174,-1.3283325385918048,9.771793372963298,0.0010925820947669776,-0.0010890766539956057,-0.002181661564992912,3.0618935058416588,0.37992026648321514,-98.25
1773078190.7406173,4.840012468588407e-06,1.255582496651622,-7.7496600585947935,-0.20693591992873248,-1.3256575130925343,9.771193469673786,0.0010890766539956055,0.0010925820947669776,-0.001090830782496456,3.0618935058416588,0.37992026648321514,-98.25
1773078190.7768898,4.840012468588407e-06,1.255582496651622,-7.7496600585947935,-0.2072513188290987,-1.3238773135047628,9.774139352443294,0.0010890766539956055,0.0010925820947669776,0.0,2.2487920137847888,0.7536142771589167,-97.75
1773078190.8011937,4.840012468588407e-06,1.255582496651622,-7.7496600585947935,-0.2072513188290987,-1.3238773135047628,9.774139352443294,0.0010890766539956055,0.0010925820947669776,0.0,2.2487920137847888,0.7536142771589167,-97.75
1773078190.8313658,4.840012468588407e-06,1.255582496651622,-7.7496600585947935,-0.20745583842987667,-1.3260377179544653,9.772754692811416,-0.0010943348151526634,0.0021799060283768973,-0.001090830782496456,2.2487920137847888,0.7536142771589167,-97.75
1773078190.895423,4.840012468588407e-06,1.255582496651622,-7.7496600585947935,-0.2075865690953815,-1.3308205503716752,9.775178329001381,1.7527203856859717e-06,-0.0010908293743812916,-0.002181661564992912,1.9971855608087508,1.7532112923709555,-98.1875
1773078190.9606433,4.840012468588407e-06,1.255582496651622,-7.7496600585947935,-0.20767356889291774,-1.3340034719175897,9.773446120104694,-3.5054407713719433e-06,0.002181658748762583,-0.002181661564992912,1.9971855608087508,1.7532112923709555,-98.1875
1773078191.0155098,4.840012468588407e-06,1.255582496651622,-7.7496600585947935,-0.20773684113050594,-1.3327765632616004,9.77229335443399,-0.0010890766539956055,-0.0010925820947669776,0.001090830782496456,1.247588222880488,1.5020065333179833,-98.1875
1773078191.0471632,4.840012468588407e-06,1.255582496651622,-7.7496600585947935,-0.20443384070859155,-1.331954694412328,9.771526201757371,0.0,0.0,-0.001090830782496456,1.247588222880488,1.5020065333179833,-98.1875
1773078191.0983264,4.840012468588407e-06,1.255582496651622,-7.7496600585947935,-0.20443384070859155,-1.331954694412328,9.771526201757371,0.0,0.0,-0.001090830782496456,1.247588222880488,1.5020065333179833,-98.1875
1773078191.1293337,4.840012468588407e-06,1.255582496651622,-7.7496600585947935,-0.20223573082473983,-1.3314077498740138,9.77101567022074,-0.002183411469148269,0.0010873239336099197,0.0,1.5607907838505723,1.0650092154752069,-97.75
1773078191.174401,4.840012468588407e-06,1.255582496651622,-7.7496600585947935,-0.20077828809571205,-1.3276986570043046,9.774021028893442,3.5054407713719433e-06,-0.002181658748762583,0.0,1.5607907838505723,1.0650092154752069,-97.75
1773078191.2129033,4.840012468588407e-06,1.255582496651622,-7.7496600585947935,-0.20077828809571205,-1.3276986570043046,9.774021028893442,3.5054407713719433e-06,-0.002181658748762583,0.0,1.5607907838505723,1.0650092154752069,-97.75
1773078191.273327,4.840012468588407e-06,1.255582496651622,-7.7496600585947935,-0.19980837624024608,-1.325230297132795,9.776021061518069,-0.0010873239336099197,-0.0021834114691482694,-0.001090830782496456,1.5607907838505723,1.0650092154752069,-98.1875
1773078191.2939827,4.840012468588407e-06,1.255582496651622,-7.7496600585947935,-0.19980837624024608,-1.325230297132795,9.776021061518069,-0.0010873239336099197,-0.0021834114691482694,-0.001090830782496456,1.5607907838505723,1.0650092154752069,-98.1875
1773078191.3327527,4.840012468588407e-06,1.255582496651622,-7.7496600585947935,-0.19873336065167885,-1.3224944553909785,9.778237826100336,0.0,0.0,0.002181661564992912,2.6857893316275647,1.0668168381290013,-97.75
1773078191.3688915,4.840012468588407e-06,1.255582496651622,-7.7496600585947935,-0.19844749986957833,-1.3217669590938679,9.778827292954546,-1.7527203856859717e-06,0.0010908293743812916,-0.003272492347489368,2.6857893316275647,1.0668168381290013,-97.75
1773078191.3834138,4.840012468588407e-06,1.255582496651622,-7.7496600585947935,-0.19844749986957833,-1.3217669590938679,9.778827292954546,-1.7527203856859717e-06,0.0010908293743812916,-0.003272492347489368,2.6857893316275647,1.0668168381290013,-97.75
1773078191.4027095,4.840012468588407e-06,1.255582496651622,-7.7496600585947935,-0.19825726271236457,-1.3212828184348067,9.775874464853926,-0.0010943348151526634,0.0021799060283768973,0.0,2.6857893316275647,1.0668168381290013,-97.75
1773078191.440083,4.840012468588407e-06,1.255582496651622,-7.7496600585947935,-0.1981306620093271,-1.320960628234407,9.773909390738215,1.7527203856859717e-06,-0.0010908293743812916,0.001090830782496456,2.2482898963809568,1.0661138737636369,-98.25
1773078191.4712236,4.840012468588407e-06,1.255582496651622,-7.7496600585947935,-0.1981306620093271,-1.320960628234407,9.773909390738215,1.7527203856859717e-06,-0.0010908293743812916,0.001090830782496456,2.2482898963809568,1.0661138737636369,-98.25
1773078191.5189707,4.840012468588407e-06,1.255582496651622,-7.7496600585947935,-0.1980464106556782,-1.3207462142551416,9.772601655865525,1.7527203856859717e-06,-0.0010908293743812916,0.0,2.2482898963809568,1.0661138737636369,-98.25
1773078191.5553744,4.840012468588407e-06,1.255582496651622,-7.7496600585947935,-0.1979795926326157,-1.3272937389255657,9.771731372916106,-0.0010855712132242336,-0.003274240843529561,0.0,1.5612929012544041,0.7525096188704868,-97.75
1773078191.5938857,4.840012468588407e-06,1.255582496651622,-7.7496600585947935,-0.1979351259846738,-1.3316510434530897,9.767807097627646,-0.0010908293743812916,-1.7527203856859717e-06,-0.001090830782496456,1.5612929012544041,0.7525096188704868,-97.75
1773078191.6257806,4.840012468588407e-06,1.255582496651622,-7.7496600585947935,-0.1979109087713727,-1.331205673552644,9.768540647967523,-0.0010908293743812916,-1.7527203856859717e-06,-0.001090830782496456,1.9982902190971805,1.0657121798405713,-97.5
1773078191.697689,4.840012468588407e-06,1.255582496651622,-7.7496600585947935,-0.19789479248644484,-1.3309092848590054,9.765683705817098,0.0,0.0,0.0,1.9982902190971805,1.0657121798405713,-97.5
1773078191.7258224,4.840012468588407e-06,1.255582496651622,-7.7496600585947935,-0.19789479248644484,-1.3309092848590054,9.765683705817098,0.0,0.0,0.0,1.9982902190971805,1.0657121798405713,-97.5
1773078191.7674215,4.840012468588407e-06,1.255582496651622,-7.7496600585947935,-0.19787869243467682,-1.3340571488834996,9.770472666144764,-1.7527203856859717e-06,0.0010908293743812916,-0.002181661564992912,1.5607907838505723,1.0650092154752069,-99.0
1773078191.807926,4.840012468588407e-06,1.255582496651622,-7.7496600585947935,-0.19786797803007458,-1.3361520172278551,9.770314554039313,1.7527203856859717e-06,-0.0010908293743812916,0.002181661564992912,1.5607907838505723,1.0650092154752069,-99.0
1773078191.8565843,4.840012468588407e-06,1.255582496651622,-7.7496600585947935,-0.19786622255767872,-1.334201021320579,9.770209332199364,0.0,0.0,0.0,1.997587254731816,1.5032116150871795,-98.25
1773078191.9148717,4.840012468588407e-06,1.255582496651622,-7.7496600585947935,-0.1978704291545884,-1.329557547949107,9.770139308240283,0.0010873239336099197,0.0021834114691482694,-0.001090830782496456,1.997587254731816,1.5032116150871795,-98.25
1773078191.955954,4.840012468588407e-06,1.255582496651622,-7.7496600585947935,-0.20122371083125237,-1.3231276357463357,9.770092708077733,-0.0010873239336099197,-0.0021834114691482694,0.001090830782496456,1.560087819485208,1.502508650721815,-98.25
1773078192.0218263,4.840012468588407e-06,1.255582496651622,-7.7496600585947935,-0.204934993387388,-1.3193460585691883,9.776731281539968,1.7527203856859717e-06,-0.0010908293743812916,0.001090830782496456,1.9993948773856105,0.3782130673101872,-98.25
1773078192.0760818,4.840012468588407e-06,1.255582496651622,-7.7496600585947935,-0.20591434972346875,-1.3230222184122749,9.774479592671508,-0.003275993563915247,0.002176400587605525,0.0,1.9993948773856105,0.3782130673101872,-98.25
1773078192.139408,4.840012468588407e-06,1.255582496651622,-7.7496600585947935,-0.20591434972346875,-1.3230222184122749,9.774479592671508,-0.003275993563915247,0.002176400587605525,0.0,1.9993948773856105,0.3782130673101872,-98.25
1773078192.186372,4.840012468588407e-06,1.255582496651622,-7.7496600585947935,-0.20656610042500337,-1.3254686617224525,9.772981118882559,-0.0010908293743812916,-1.7527203856859717e-06,0.0,1.5607907838505723,1.0650092154752069,-99.0
1773078192.2223096,4.840012468588407e-06,1.255582496651622,-7.7496600585947935,-0.20700520808052153,-1.323751635027581,9.768638789607744,0.0010925820947669776,-0.0010890766539956057,0.002181661564992912,1.5607907838505723,1.0650092154752069,-99.0
1773078192.2995417,4.840012468588407e-06,1.255582496651622,-7.7496600585947935,-0.20729742932011494,-1.3226089729425894,9.765749017982351,0.0,0.0,-0.001090830782496456,2.6868939899159945,0.37931772559861704,-97.0625
1773078192.3404896,4.840012468588407e-06,1.255582496651622,-7.7496600585947935,-0.20729742932011494,-1.3226089729425894,9.765749017982351,0.0,0.0,-0.001090830782496456,2.6868939899159945,0.37931772559861704,-97.0625
1773078192.374767,4.840012468588407e-06,1.255582496651622,-7.7496600585947935,-0.21083163183579215,-1.3251990263228106,9.763825907246515,-1.7527203856859717e-06,0.0010908293743812916,0.0,2.6868939899159945,0.37931772559861704,-97.0625
1773078192.3883593,4.840012468588407e-06,1.255582496651622,-7.7496600585947935,-0.20983849674111427,-1.3269173030703765,9.76589121024169,-3.5054407713719433e-06,0.002181658748762583,-0.001090830782496456,2.2493945546693865,0.3786147612332526,-98.25
1773078192.4095016,4.840012468588407e-06,1.255582496651622,-7.7496600585947935,-0.20983849674111427,-1.3269173030703765,9.76589121024169,-3.5054407713719433e-06,0.002181658748762583,-0.001090830782496456,2.2493945546693865,0.3786147612332526,-98.25
1773078192.427783,4.840012468588407e-06,1.255582496651622,-7.7496600585947935,-0.20917757642965204,-1.3280607970514726,9.767265646314033,-3.5054407713719433e-06,0.002181658748762583,-0.001090830782496456,2.2493945546693865,0.3786147612332526,-98.25
1773078192.4799175,4.840012468588407e-06,1.255582496651622,-7.7496600585947935,-0.2087377413453376,-1.3288217795222272,9.76818031816672,-0.0010925820947669776,0.0010890766539956057,-0.001090830782496456,1.9988927599817787,0.6907126639149073,-97.875
1773078192.5307534,4.840012468588407e-06,1.255582496651622,-7.7496600585947935,-0.20843966116582693,-1.3326733122450156,9.765443910359812,-0.002181658748762583,-3.5054407713719433e-06,-0.002181661564992912,1.9988927599817787,0.6907126639149073,-97.875
1773078192.554785,4.840012468588407e-06,1.255582496651622,-7.7496600585947935,-0.20824666698031558,-1.3318913568583595,9.76696797323931,0.0010925820947669776,-0.0010890766539956057,0.0,1.9987923365010123,0.7532125832358513,-97.0625
1773078192.5996888,4.840012468588407e-06,1.255582496651622,-7.7496600585947935,-0.2081182315057441,-1.3313709742835538,9.771327331768038,0.0,0.0,0.0,1.9987923365010123,0.7532125832358513,-97.0625
1773078192.6153119,4.840012468588407e-06,1.255582496651622,-7.7496600585947935,-0.2081182315057441,-1.3313709742835538,9.771327331768038,0.0,0.0,0.0,1.9987923365010123,0.7532125832358513,-97.0625
1773078192.6525679,4.840012468588407e-06,1.255582496651622,-7.7496600585947935,-0.20240463923281904,-1.3307852491185943,9.776159088744846,0.0010925820947669776,-0.0010890766539956057,0.001090830782496456,2.2487920137847888,0.7536142771589167,-97.75
1773078192.681194,4.840012468588407e-06,1.255582496651622,-7.7496600585947935,-0.20087994506609974,-1.3339746044838259,9.777443916465485,-0.002181658748762583,-3.5054407713719433e-06,0.001090830782496456,2.2487920137847888,0.7536142771589167,-97.75
1773078192.7101676,4.840012468588407e-06,1.255582496651622,-7.7496600585947935,-0.20087994506609974,-1.3339746044838259,9.777443916465485,-0.002181658748762583,-3.5054407713719433e-06,0.001090830782496456,2.2487920137847888,0.7536142771589167,-97.75
1773078192.7437606,4.840012468588407e-06,1.255582496651622,-7.7496600585947935,-0.19987065297427714,-1.332751977462722,9.774953843253785,0.0,0.0,-0.001090830782496456,2.2487920137847888,0.7536142771589167,-97.75
1773078192.804866,4.840012468588407e-06,1.255582496651622,-7.7496600585947935,-0.19540688235187348,-1.3313914865847674,9.768848823515476,-0.0010855712132242336,-0.003274240843529561,0.0,1.560087819485208,1.502508650721815,-97.0625
1773078192.8462172,4.840012468588407e-06,1.255582496651622,-7.7496600585947935,-0.19288328348684386,-1.3310275665120366,9.775924128323673,-0.0010890766539956055,-0.0010925820947669776,0.0,1.560087819485208,1.502508650721815,-97.0625
1773078192.8725023,4.840012468588407e-06,1.255582496651622,-7.7496600585947935,-0.19455433886602444,-1.3274456492238351,9.770597329515235,0.0,0.0,0.001090830782496456,2.2487920137847888,0.7536142771589167,-98.25
1773078192.9140103,4.840012468588407e-06,1.255582496651622,-7.7496600585947935,-0.1956610327097782,-1.3284070306704068,9.77708773953442,-1.7527203856859717e-06,0.0010908293743812916,-0.002181661564992912,2.2487920137847888,0.7536142771589167,-98.25
1773078192.930159,4.840012468588407e-06,1.255582496651622,-7.7496600585947935,-0.1956610327097782,-1.3284070306704068,9.77708773953442,-1.7527203856859717e-06,0.0010908293743812916,-0.002181661564992912,2.2487920137847888,0.7536142771589167,-98.25
1773078192.950922,4.840012468588407e-06,1.255582496651622,-7.7496600585947935,-0.19974263248944815,-1.3290521941279452,9.778061923192237,-0.0010908293743812916,-1.7527203856859717e-06,-0.001090830782496456,2.2487920137847888,0.7536142771589167,-98.25
1773078192.96737,4.840012468588407e-06,1.255582496651622,-7.7496600585947935,-0.19974263248944815,-1.3290521941279452,9.778061923192237,-0.0010908293743812916,-1.7527203856859717e-06,-0.001090830782496456,2.2487920137847888,0.7536142771589167,-98.25
1773078192.9904497,4.840012468588407e-06,1.255582496651622,-7.7496600585947935,-0.19911378415912942,-1.3294761683578098,9.77871023153417,0.0021799060283768973,0.0010943348151526637,0.002181661564992912,1.560087819485208,1.502508650721815,-99.5
1773078193.0091743,4.840012468588407e-06,1.255582496651622,-7.7496600585947935,-0.20204040000923051,-1.3297636933158612,9.779141673493648,-0.0010873239336099197,-0.0021834114691482694,-0.001090830782496456,1.560087819485208,1.502508650721815,-99.5
1773078193.0253942,4.840012468588407e-06,1.255582496651622,-7.7496600585947935,-0.20204040000923051,-1.3297636933158612,9.779141673493648,-0.0010873239336099197,-0.0021834114691482694,-0.001090830782496456,1.560087819485208,1.502508650721815,-99.5
1773078193.0620086,4.840012468588407e-06,1.255582496651622,-7.7496600585947935,-0.2052841562772629,-1.3300823756891778,9.768477375958332,-1.7527203856859717e-06,0.0010908293743812916,0.0,2.2482898963809568,1.0661138737636369,-98.25
1773078193.0918603,4.840012468588407e-06,1.255582496651622,-7.7496600585947935,-0.20280160633704336,-1.3301617426789278,9.765641599001775,-0.0010908293743812916,-1.7527203856859717e-06,-0.001090830782496456,2.2482898963809568,1.0661138737636369,-98.25
1773078193.119534,4.840012468588407e-06,1.255582496651622,-7.7496600585947935,-0.19780976453867424,-1.3268640782906078,9.763754421114891,1.7527203856859717e-06,-0.0010908293743812916,-0.001090830782496456,2.2482898963809568,1.0661138737636369,-98.25
1773078193.1348283,4.840012468588407e-06,1.255582496651622,-7.7496600585947935,-0.19780976453867424,-1.3268640782906078,9.763754421114891,1.7527203856859717e-06,-0.0010908293743812916,-0.001090830782496456,2.2482898963809568,1.0661138737636369,-98.25
1773078193.1555123,4.840012468588407e-06,1.255582496651622,-7.7496600585947935,-0.19448774958438625,-1.3246695194775058,9.765843637019648,1.7527203856859717e-06,-0.0010908293743812916,0.0,2.2487920137847888,0.7536142771589167,-97.0625
1773078193.186118,4.840012468588407e-06,1.255582496651622,-7.7496600585947935,-0.19562209313087822,-1.3232144399463939,9.763888875158873,-0.0010873239336099197,-0.0021834114691482694,0.001090830782496456,2.2487920137847888,0.7536142771589167,-97.0625
1773078193.2405443,4.840012468588407e-06,1.255582496651622,-7.7496600585947935,-0.19637161124544172,-1.3255912081619743,9.765933114683968,-3.5054407713719433e-06,0.002181658748762583,-0.002181661564992912,1.9993948773856105,0.3782130673101872,-98.25
1773078193.29183,4.840012468588407e-06,1.255582496651622,-7.7496600585947935,-0.19687578202219702,-1.3238278134699706,9.767293533252266,-5.258161157057915e-06,0.003272488123143875,-0.001090830782496456,1.9993948773856105,0.3782130673101872,-98.25
1773078193.3641274,4.840012468588407e-06,1.255582496651622,-7.7496600585947935,-0.20055103458722398,-1.3260047762342624,9.768198876612598,-1.7527203856859717e-06,0.0010908293743812916,0.0,3.0596841892647992,1.7549184915439835,-98.25
1773078193.4304173,4.840012468588407e-06,1.255582496651622,-7.7496600585947935,-0.19965176672475607,-1.3274481457914522,9.76880137250555,1.7527203856859717e-06,-0.0010908293743812916,0.0,3.0596841892647992,1.7549184915439835,-98.25
1773078193.4883585,4.840012468588407e-06,1.255582496651622,-7.7496600585947935,-0.1990533140077639,-1.3284086921082674,9.769202326791989,0.0010925820947669776,-0.0010890766539956057,0.002181661564992912,2.6857893316275647,1.0668168381290013,-98.25
1773078193.5406263,4.840012468588407e-06,1.255582496651622,-7.7496600585947935,-0.1953099430205284,-1.3290425501079235,9.769469157390661,-0.0010925820947669776,0.0010890766539956057,0.0,2.6857893316275647,1.0668168381290013,-98.25
1773078193.5591848,4.840012468588407e-06,1.255582496651622,-7.7496600585947935,-0.1953099430205284,-1.3290425501079235,9.769469157390661,-0.0010925820947669776,0.0010890766539956057,0.0,2.6857893316275647,1.0668168381290013,-98.25
1773078193.6077776,4.840012468588407e-06,1.255582496651622,-7.7496600585947935,-0.19450603197845653,-1.3297504704738716,9.76976490287667,0.0010890766539956055,0.0010925820947669776,-0.14180800172453928,1.560087819485208,1.502508650721815,-97.0625
1773078193.6849,4.840012468588407e-06,1.255582496651622,-7.7496600585947935,-0.19450603197845653,-1.3297504704738716,9.76976490287667,0.0010890766539956055,0.0010925820947669776,-0.14180800172453928,1.560087819485208,1.502508650721815,-97.0625
1773078193.7294686,4.840012468588407e-06,1.255582496651622,-7.7496600585947935,-0.19562888501572503,-1.329940863465766,9.766498433783312,0.0010943348151526634,-0.0021799060283768973,0.002181661564992912,1.9988927599817787,0.6907126639149073,-98.5625
1773078193.773634,4.840012468588407e-06,1.255582496651622,-7.7496600585947935,-0.19637613116893693,-1.3300675678750422,9.764324635090532,0.002181658748762583,3.5054407713719433e-06,0.001090830782496456,1.9988927599817787,0.6907126639149073,-98.5625
1773078193.8279746,4.840012468588407e-06,1.255582496651622,-7.7496600585947935,-0.19687341513661302,-1.3301518882440349,9.76622310805073,0.0010960875355383495,-0.003270735402758189,0.001090830782496456,2.6868939899159945,0.37931772559861704,-98.5625
1773078193.8830073,4.840012468588407e-06,1.255582496651622,-7.7496600585947935,-0.19742458688916315,-1.330245345923297,9.773898553716839,0.0,0.0,-0.002181661564992912,2.6868939899159945,0.37931772559861704,-98.5625
1773078193.918702,4.840012468588407e-06,1.255582496651622,-7.7496600585947935,-0.19756577586222654,-1.3336153049384696,9.775939555656176,0.0010943348151526634,-0.0021799060283768973,0.0,1.560087819485208,1.502508650721815,-97.5
1773078193.9786847,4.840012468588407e-06,1.255582496651622,-7.7496600585947935,-0.19765973554661603,-1.3358579750181578,9.77729781964732,3.5054407713719433e-06,-0.002181658748762583,-0.001090830782496456,1.560087819485208,1.502508650721815,-97.5
1773078194.0237656,4.840012468588407e-06,1.255582496651622,-7.7496600585947935,-0.19765973554661603,-1.3358579750181578,9.77729781964732,3.5054407713719433e-06,-0.002181658748762583,-0.001090830782496456,1.560087819485208,1.502508650721815,-97.5
1773078194.05091,4.840012468588407e-06,1.255582496651622,-7.7496600585947935,-0.19772763951115802,-1.3340053395146922,9.774856617453304,-3.5054407713719433e-06,0.002181658748762583,0.0,2.6862914490313967,0.7543172415242811,-98.5625
1773078194.0903718,4.840012468588407e-06,1.255582496651622,-7.7496600585947935,-0.19777282884102373,-1.3327724312824305,9.773232024663201,1.7527203856859717e-06,-0.0010908293743812916,-0.001090830782496456,2.6862914490313967,0.7543172415242811,-98.5625
1773078194.1321945,4.840012468588407e-06,1.255582496651622,-7.7496600585947935,-0.19780290183525148,-1.3319519446263475,9.77215087630928,3.5054407713719433e-06,-0.002181658748762583,0.0,2.2487920137847888,0.7536142771589167,-98.1875
1773078194.2030072,4.840012468588407e-06,1.255582496651622,-7.7496600585947935,-0.1978229150769727,-1.331405919922161,9.774776495864282,-0.002176400587605525,-0.003275993563915247,-0.001090830782496456,2.2487920137847888,0.7536142771589167,-98.1875
1773078194.252581,4.840012468588407e-06,1.255582496651622,-7.7496600585947935,-0.1978362336657756,-1.3310425465810203,9.776523816348044,-0.0010908293743812916,-1.7527203856859717e-06,0.0,3.0600858831878646,1.5049188142602075,-99.0
1773078194.3358707,4.840012468588407e-06,1.255582496651622,-7.7496600585947935,-0.19785047188202476,-1.327455618292405,9.781031750318459,-0.002183411469148269,0.0010873239336099197,-0.001090830782496456,3.0600858831878646,1.5049188142602075,-99.0
1773078194.4152808,4.840012468588407e-06,1.255582496651622,-7.7496600585947935,-0.20120505464511937,-1.3250739324291256,9.784031730018848,3.5054407713719433e-06,-0.002181658748762583,0.001090830782496456,1.9993948773856105,0.3782130673101872,-98.25
1773078194.435185,4.840012468588407e-06,1.255582496651622,-7.7496600585947935,-0.20678259939004617,-1.3234943219364668,9.779337959582849,-0.0010873239336099197,-0.0021834114691482694,-0.002181661564992912,1.9993948773856105,0.3782130673101872,-98.25
1773078194.4595685,4.840012468588407e-06,1.255582496651622,-7.7496600585947935,-0.20678259939004617,-1.3234943219364668,9.779337959582849,-0.0010873239336099197,-0.0021834114691482694,-0.002181661564992912,1.9993948773856105,0.3782130673101872,-98.25
1773078194.4922652,4.840012468588407e-06,1.255582496651622,-7.7496600585947935,-0.20714391087912634,-1.3257828413440604,9.776214307790543,0.002183411469148269,-0.0010873239336099197,0.0,1.2482911872458524,1.0645070980713751,-98.5625
1773078194.509807,4.840012468588407e-06,1.255582496651622,-7.7496600585947935,-0.2073951093273539,-1.320615610666913,9.77413555241624,0.0,0.0,0.0,1.2482911872458524,1.0645070980713751,-98.5625
1773078194.527341,4.840012468588407e-06,1.255582496651622,-7.7496600585947935,-0.2042117968551675,-1.3205166089180729,9.772752163935861,-5.258161157057915e-06,0.003272488123143875,-0.001090830782496456,1.2482911872458524,1.0645070980713751,-98.5625
1773078194.5436907,4.840012468588407e-06,1.255582496651622,-7.7496600585947935,-0.2042117968551675,-1.3205166089180729,9.772752163935861,-5.258161157057915e-06,0.003272488123143875,-0.001090830782496456,1.2482911872458524,1.0645070980713751,-98.5625
1773078194.5653157,4.840012468588407e-06,1.255582496651622,-7.7496600585947935,-0.2054384453540898,-1.320456099204321,9.77183153435563,0.0010890766539956055,0.0010925820947669776,0.0,3.0600858831878646,1.5049188142602075,-97.5
1773078194.5957294,4.840012468588407e-06,1.255582496651622,-7.7496600585947935,-0.20624939138338186,-1.323760938054989,9.771218865654093,-0.0010960875355383495,0.003270735402758189,-0.001090830782496456,3.0600858831878646,1.5049188142602075,-97.5
1773078194.6276908,4.840012468588407e-06,1.255582496651622,-7.7496600585947935,-0.20624939138338186,-1.323760938054989,9.771218865654093,-0.0010960875355383495,0.003270735402758189,-0.001090830782496456,3.0600858831878646,1.5049188142602075,-97.5
1773078194.6668806,4.840012468588407e-06,1.255582496651622,-7.7496600585947935,-0.20678906690701498,-1.32596027139264,9.770811141477177,-3.5054407713719433e-06,0.002181658748762583,-0.002181661564992912,1.9982902190971805,1.0657121798405713,-98.25
1773078194.7011409,4.840012468588407e-06,1.255582496651622,-7.7496600585947935,-0.20678906690701498,-1.32596027139264,9.770811141477177,-3.5054407713719433e-06,0.002181658748762583,-0.002181661564992912,1.9982902190971805,1.0657121798405713,-98.25
1773078194.7286196,4.840012468588407e-06,1.255582496651622,-7.7496600585947935,-0.20380848239436936,-1.324073420927272,9.770539805592017,-1.7527203856859717e-06,0.0010908293743812916,-0.002181661564992912,1.9982902190971805,1.0657121798405713,-98.25
1773078194.7706757,4.840012468588407e-06,1.255582496651622,-7.7496600585947935,-0.2018249366965143,-1.3228177430200705,9.770359234591464,-0.0010925820947669776,0.0010890766539956057,0.0,1.9964825964433863,2.1907107276175637,-99.5
1773078194.7909584,4.840012468588407e-06,1.255582496651622,-7.7496600585947935,-0.20050490919224903,-1.321982103399669,9.770239066607706,3.5054407713719433e-06,-0.002181658748762583,0.001090830782496456,1.9964825964433863,2.1907107276175637,-99.5
1773078194.8117433,4.840012468588407e-06,1.255582496651622,-7.7496600585947935,-0.20050490919224903,-1.321982103399669,9.770239066607706,3.5054407713719433e-06,-0.002181658748762583,0.001090830782496456,1.9964825964433863,2.1907107276175637,-99.5
1773078194.8331254,4.840012468588407e-06,1.255582496651622,-7.7496600585947935,-0.202971553023066,-1.3214313694111774,9.77015909615688,-1.7527203856859717e-06,0.0010908293743812916,-0.002181661564992912,2.6857893316275647,1.0668168381290013,-97.5
1773078194.8550842,4.840012468588407e-06,1.255582496651622,-7.7496600585947935,-0.202971553023066,-1.3214313694111774,9.77015909615688,-1.7527203856859717e-06,0.0010908293743812916,-0.002181661564992912,2.6857893316275647,1.0668168381290013,-97.5
1773078194.9169474,4.840012468588407e-06,1.255582496651622,-7.7496600585947935,-0.20461307693825764,-1.3210648620939378,9.773450988422502,-0.0010908293743812916,-1.7527203856859717e-06,0.0,2.6857893316275647,1.0668168381290013,-97.5
1773078195.0190892,4.840012468588407e-06,1.255582496651622,-7.7496600585947935,-0.2057054927667941,-1.3208209555684698,9.775641705952427,-0.0010908293743812916,-1.7527203856859717e-06,-0.002181661564992912,2.2482898963809568,1.0661138737636369,-98.5625
1773078195.052781,4.840012468588407e-06,1.255582496651622,-7.7496600585947935,-0.2057054927667941,-1.3208209555684698,9.775641705952427,-0.0010908293743812916,-1.7527203856859717e-06,-0.002181661564992912,2.2482898963809568,1.0661138737636369,-98.5625
1773078195.0912812,4.840012468588407e-06,1.255582496651622,-7.7496600585947935,-0.20643248329760067,-1.3206586385003853,9.777099603996675,0.0010890766539956055,0.0010925820947669776,-0.001090830782496456,2.2482898963809568,1.0661138737636369,-98.5625
1773078195.1448967,4.840012468588407e-06,1.255582496651622,-7.7496600585947935,-0.20691628737483617,-1.3205506183047757,9.778069818859333,0.0010943348151526634,-0.0021799060283768973,0.0,2.2482898963809568,1.0661138737636369,-97.0625
1773078195.1889026,4.840012468588407e-06,1.255582496651622,-7.7496600585947935,-0.20691628737483617,-1.3205506183047757,9.778069818859333,0.0010943348151526634,-0.0021799060283768973,0.0,2.2482898963809568,1.0661138737636369,-97.0625
1773078195.2248142,4.840012468588407e-06,1.255582496651622,-7.7496600585947935,-0.2072382535837907,-1.320478732071262,9.778715486012421,-1.7527203856859717e-06,0.0010908293743812916,-0.002181661564992912,2.2482898963809568,1.0661138737636369,-97.0625
1773078195.2776937,4.840012468588407e-06,1.255582496651622,-7.7496600585947935,-0.2074417688108933,-1.3271211073643447,9.779145170290228,-0.0010890766539956055,-0.0010925820947669776,0.001090830782496456,1.997587254731816,1.5032116150871795,-98.25
1773078195.3138113,4.840012468588407e-06,1.255582496651622,-7.7496600585947935,-0.20424284822024236,-1.324845944299054,9.776086008669902,-3.5054407713719433e-06,0.002181658748762583,0.0,1.997587254731816,1.5032116150871795,-98.25
1773078195.3345826,4.840012468588407e-06,1.255582496651622,-7.7496600585947935,-0.20211400230144858,-1.3233318486943397,9.774050170784648,-0.0010943348151526634,0.0021799060283768973,-0.003272492347489368,1.9971855608087508,1.7532112923709555,-98.25
1773078195.359538,4.840012468588407e-06,1.255582496651622,-7.7496600585947935,-0.2040423865124905,-1.3223296098271378,9.77938556682845,-3.5054407713719433e-06,0.002181658748762583,0.0,1.9971855608087508,1.7532112923709555,-98.25
1773078195.4139714,4.840012468588407e-06,1.255582496651622,-7.7496600585947935,-0.20866543720852868,-1.325013113290168,9.782936213295322,-3.5054407713719433e-06,0.002181658748762583,-0.002181661564992912,1.9982902190971805,1.0657121798405713,-98.5625
1773078195.4307191,4.840012468588407e-06,1.255582496651622,-7.7496600585947935,-0.20866543720852868,-1.325013113290168,9.782936213295322,-3.5054407713719433e-06,0.002181658748762583,-0.002181661564992912,1.9982902190971805,1.0657121798405713,-98.5625
1773078195.4627526,4.840012468588407e-06,1.255582496651622,-7.7496600585947935,-0.21174202580388204,-1.3267989548681165,9.785299128855705,-0.0010890766539956055,-0.0010925820947669776,-0.001090830782496456,1.9982902190971805,1.0657121798405713,-98.5625
1773078195.5010388,4.840012468588407e-06,1.255582496651622,-7.7496600585947935,-0.21378946114634326,-1.3279874124890838,9.780181399351005,-0.0010908293743812916,-1.7527203856859717e-06,0.001090830782496456,2.247185238092527,1.753612986294021,-97.5
1773078195.5398073,4.840012468588407e-06,1.255582496651622,-7.7496600585947935,-0.2151520064953998,-1.3287783177598962,9.776775607534411,0.0010943348151526634,-0.0021799060283768973,0.001090830782496456,2.247185238092527,1.753612986294021,-97.5
1773078195.5716858,4.840012468588407e-06,1.255582496651622,-7.7496600585947935,-0.2151520064953998,-1.3287783177598962,9.776775607534411,0.0010943348151526634,-0.0021799060283768973,0.001090830782496456,2.247185238092527,1.753612986294021,-97.5
1773078195.607696,4.840012468588407e-06,1.255582496651622,-7.7496600585947935,-0.2160587652045681,-1.329304656382631,9.774509091125655,0.0010873239336099197,0.0021834114691482694,-0.002181661564992912,1.5613933247351706,0.6900096995495428,-97.0625
1773078195.6270945,4.840012468588407e-06,1.255582496651622,-7.7496600585947935,-0.213317095607129,-1.3296495540122941,9.769655638066956,-3.5054407713719433e-06,0.002181658748762583,-0.001090830782496456,1.5613933247351706,0.6900096995495428,-97.0625
1773078195.6405013,4.840012468588407e-06,1.255582496651622,-7.7496600585947935,-0.213317095607129,-1.3296495540122941,9.769655638066956,-3.5054407713719433e-06,0.002181658748762583,-0.001090830782496456,1.5613933247351706,0.6900096995495428,-97.0625
1773078195.6558905,4.840012468588407e-06,1.255582496651622,-7.7496600585947935,-0.21149791996066863,-1.326533972142844,9.769770830980335,0.002178153307991211,0.0021851641895339552,-0.002181661564992912,1.5613933247351706,0.6900096995495428,-97.0625
1773078195.6898315,4.840012468588407e-06,1.255582496651622,-7.7496600585947935,-0.20694217150024063,-1.3244552123678754,9.76650237887008,0.0010908293743812916,1.7527203856859717e-06,-0.002181661564992912,1.560087819485208,1.502508650721815,-98.5625
1773078195.7362683,4.840012468588407e-06,1.255582496651622,-7.7496600585947935,-0.20391037179087068,-1.323071820958902,9.764327260501707,-1.7527203856859717e-06,0.0010908293743812916,0.0,1.560087819485208,1.502508650721815,-98.5625
1773078195.7587311,4.840012468588407e-06,1.255582496651622,-7.7496600585947935,-0.20391037179087068,-1.323071820958902,9.764327260501707,-1.7527203856859717e-06,0.0010908293743812916,0.0,1.560087819485208,1.502508650721815,-98.5625
1773078195.7861245,4.840012468588407e-06,1.255582496651622,-7.7496600585947935,-0.19854226071829545,-1.325490921974778,9.762879743525218,1.7527203856859717e-06,-0.0010908293743812916,-0.002181661564992912,2.6857893316275647,1.0668168381290013,-99.5
1773078195.8119516,4.840012468588407e-06,1.255582496651622,-7.7496600585947935,-0.19496984276522644,-1.3271008066777141,9.761916437147189,0.002181658748762583,3.5054407713719433e-06,0.001090830782496456,2.6857893316275647,1.0668168381290013,-99.5
1773078195.8362617,4.840012468588407e-06,1.255582496651622,-7.7496600585947935,-0.19259243852398236,-1.328172166963928,9.764620479220769,-1.7527203856859717e-06,0.0010908293743812916,-0.002181661564992912,2.6857893316275647,1.0668168381290013,-99.5
1773078195.85274,4.840012468588407e-06,1.255582496651622,-7.7496600585947935,-0.19259243852398236,-1.328172166963928,9.764620479220769,-1.7527203856859717e-06,0.0010908293743812916,-0.002181661564992912,2.6857893316275647,1.0668168381290013,-99.5
1773078195.9075406,4.840012468588407e-06,1.255582496651622,-7.7496600585947935,-0.194355409948012,-1.3288905201107037,9.769765100721925,0.0010925820947669776,-0.0010890766539956057,0.0,2.6850863672622003,1.5043162733756092,-98.25
1773078195.9644358,4.840012468588407e-06,1.255582496651622,-7.7496600585947935,-0.19886838028207543,-1.332719058338764,9.769843677154437,-0.0010890766539956055,-0.0010925820947669776,0.001090830782496456,2.6850863672622003,1.5043162733756092,-98.25
1773078195.9964101,4.840012468588407e-06,1.255582496651622,-7.7496600585947935,-0.1985319790811599,-1.3319164255285523,9.773241080599838,0.0010908293743812916,1.7527203856859717e-06,-0.001090830782496456,3.498288282799837,1.0681223433789637,-98.5625
1773078196.0276453,4.840012468588407e-06,1.255582496651622,-7.7496600585947935,-0.19830810783979827,-1.3313822823593526,9.77215690293395,-0.002176400587605525,-0.003275993563915247,0.001090830782496456,3.498288282799837,1.0681223433789637,-98.5625
1773078196.0621796,4.840012468588407e-06,1.255582496651622,-7.7496600585947935,-0.19830810783979827,-1.3313822823593526,9.77215690293395,-0.002176400587605525,-0.003275993563915247,0.001090830782496456,3.498288282799837,1.0681223433789637,-98.5625
1773078196.1228905,4.840012468588407e-06,1.255582496651622,-7.7496600585947935,-0.19815912402947775,-1.3310268160470204,9.771435394808359,0.0010890766539956055,0.0010925820947669776,-0.001090830782496456,2.686391872512163,0.6918173222033371,-96.6875
1773078196.142438,4.840012468588407e-06,1.255582496651622,-7.7496600585947935,-0.2014050843571997,-1.3307956320311611,9.770955239210553,-0.0010908293743812916,-1.7527203856859717e-06,0.001090830782496456,2.686391872512163,0.6918173222033371,-96.6875
1773078196.1577797,4.840012468588407e-06,1.255582496651622,-7.7496600585947935,-0.203565234695546,-1.3306417816511016,9.77398081273122,-0.0010908293743812916,-1.7527203856859717e-06,0.001090830782496456,2.686391872512163,0.6918173222033371,-96.6875
1773078196.1927245,4.840012468588407e-06,1.255582496651622,-7.7496600585947935,-0.203565234695546,-1.3306417816511016,9.77398081273122,-0.0010908293743812916,-1.7527203856859717e-06,0.001090830782496456,2.686391872512163,0.6918173222033371,-96.6875
1773078196.248665,4.840012468588407e-06,1.255582496651622,-7.7496600585947935,-0.20500279061525506,-1.3305393959417933,9.775994298111355,-0.0021746478672198394,-0.004366822938296539,0.001090830782496456,3.061290964957061,0.7549197824088792,-97.75
1773078196.2721944,4.840012468588407e-06,1.255582496651622,-7.7496600585947935,-0.1992692532428054,-1.3304605097076136,9.78067936184705,1.7527203856859717e-06,-0.0010908293743812916,0.002181661564992912,3.061290964957061,0.7549197824088792,-97.75
1773078196.3057137,4.840012468588407e-06,1.255582496651622,-7.7496600585947935,-0.1954536481692492,-1.330408011799984,9.783797219427562,0.0,0.0,-0.001090830782496456,1.997587254731816,1.5032116150871795,-97.5
1773078196.3627138,4.840012468588407e-06,1.255582496651622,-7.7496600585947935,-0.192914405615899,-1.3303730750288965,9.785872118818641,0.0,0.0,0.0,1.997587254731816,1.5032116150871795,-97.5
1773078196.4196138,4.840012468588407e-06,1.255582496651622,-7.7496600585947935,-0.192914405615899,-1.3303730750288965,9.785872118818641,0.0,0.0,0.0,1.997587254731816,1.5032116150871795,-97.5
1773078196.5185404,4.840012468588407e-06,1.255582496651622,-7.7496600585947935,-0.19345405917851163,-1.324768488216881,9.77702937068306,-0.0010855712132242336,-0.003274240843529561,0.001090830782496456,1.2493958455342824,0.3770079855409911,-98.25
1773078196.5428143,4.840012468588407e-06,1.255582496651622,-7.7496600585947935,-0.1949288088686679,-1.326625409926127,9.77467796766636,-0.0010925820947669776,0.0010890766539956057,0.0,3.498288282799837,1.0681223433789637,-98.5625
1773078196.5874538,4.840012468588407e-06,1.255582496651622,-7.7496600585947935,-0.1959102383134334,-1.3278611705804555,9.773113135225639,1.7527203856859717e-06,-0.0010908293743812916,0.002181661564992912,3.498288282799837,1.0681223433789637,-98.5625
1773078196.6110718,4.840012468588407e-06,1.255582496651622,-7.7496600585947935,-0.1959102383134334,-1.3278611705804555,9.773113135225639,1.7527203856859717e-06,-0.0010908293743812916,0.002181661564992912,3.498288282799837,1.0681223433789637,-98.5625
1773078196.6296124,4.840012468588407e-06,1.255582496651622,-7.7496600585947935,-0.1999084760348717,-1.3286889303357392,9.768726645009345,0.0010908293743812916,1.7527203856859717e-06,0.001090830782496456,1.247588222880488,1.5020065333179833,-99.0
1773078196.6624448,4.840012468588407e-06,1.255582496651622,-7.7496600585947935,-0.20256925857524707,-1.3292397952061983,9.765807484770706,-0.0010890766539956055,-0.0010925820947669776,-0.001090830782496456,1.247588222880488,1.5020065333179833,-99.0
1773078196.6843367,4.840012468588407e-06,1.255582496651622,-7.7496600585947935,-0.20435072932133685,-1.3229161748454608,9.76386481624105,0.0010925820947669776,-0.0010890766539956057,0.001090830782496456,2.2487920137847888,0.7536142771589167,-97.5
1773078196.7454307,4.840012468588407e-06,1.255582496651622,-7.7496600585947935,-0.205525528514169,-1.325398090913322,9.762571992035593,3.5054407713719433e-06,-0.002181658748762583,-0.001090830782496456,2.2487920137847888,0.7536142771589167,-97.5
1773078196.772889,4.840012468588407e-06,1.255582496651622,-7.7496600585947935,-0.205525528514169,-1.325398090913322,9.762571992035593,3.5054407713719433e-06,-0.002181658748762583,-0.001090830782496456,2.2487920137847888,0.7536142771589167,-97.5
1773078196.843189,4.840012468588407e-06,1.255582496651622,-7.7496600585947935,-0.21241140152595844,-1.3203605390112496,9.761139071954958,1.7527203856859717e-06,-0.0010908293743812916,-0.001090830782496456,2.2482898963809568,1.0661138737636369,-97.0
1773078196.9377575,4.840012468588407e-06,1.255582496651622,-7.7496600585947935,-0.21089519066691542,-1.3203522364247453,9.767448263076396,-0.0010873239336099197,-0.0021834114691482694,0.0,3.498288282799837,1.0681223433789637,-97.5
1773078197.0039885,4.840012468588407e-06,1.255582496651622,-7.7496600585947935,-0.20988079443322816,-1.323691818535405,9.77164695928943,0.0021799060283768973,0.0010943348151526637,-0.001090830782496456,3.498288282799837,1.0681223433789637,-97.5
1773078197.0418265,4.840012468588407e-06,1.255582496651622,-7.7496600585947935,-0.20920572507125768,-1.3259142731244722,9.771096033009375,-0.0010943348151526634,0.0021799060283768973,0.0,3.7475849957182485,1.5060234725486372,-98.5625
1773078197.0846539,4.840012468588407e-06,1.255582496651622,-7.7496600585947935,-0.20920572507125768,-1.3259142731244722,9.771096033009375,-0.0010943348151526634,0.0021799060283768973,0.0,3.7475849957182485,1.5060234725486372,-98.5625
1773078197.1141415,4.840012468588407e-06,1.255582496651622,-7.7496600585947935,-0.2087564739518852,-1.327393291827052,9.767384286016929,-1.7527203856859717e-06,0.0010908293743812916,0.001090830782496456,3.7475849957182485,1.5060234725486372,-98.5625
1773078197.1436594,4.840012468588407e-06,1.255582496651622,-7.7496600585947935,-0.20845750235040664,-1.3283775622518972,9.764914159856387,-5.258161157057915e-06,0.003272488123143875,0.0,2.2475869320155923,1.5036133090102448,-97.75
1773078197.165814,4.840012468588407e-06,1.255582496651622,-7.7496600585947935,-0.20845750235040664,-1.3283775622518972,9.764914159856387,-5.258161157057915e-06,0.003272488123143875,0.0,2.2475869320155923,1.5036133090102448,-97.75
1773078197.1993942,4.840012468588407e-06,1.255582496651622,-7.7496600585947935,-0.20491343270012216,-1.3290272083804318,9.769960541904302,-0.0021851641895339552,0.0021781533079912115,-0.001090830782496456,2.2475869320155923,1.5036133090102448,-97.75
1773078197.23855,4.840012468588407e-06,1.255582496651622,-7.7496600585947935,-0.2025548939377099,-1.3294595406219485,9.776663964492728,-1.7527203856859717e-06,0.0010908293743812916,0.0,2.2475869320155923,1.5036133090102448,-98.5625
1773078197.2921758,4.840012468588407e-06,1.255582496651622,-7.7496600585947935,-0.2025548939377099,-1.3294595406219485,9.776663964492728,-1.7527203856859717e-06,0.0010908293743812916,0.0,2.2475869320155923,1.5036133090102448,-98.5625
1773078197.335129,4.840012468588407e-06,1.255582496651622,-7.7496600585947935,-0.20098531273792883,-1.3297472528992105,9.78112501734319,-0.0010890766539956055,-0.0010925820947669776,0.001090830782496456,2.2475869320155923,1.5036133090102448,-98.5625
1773078197.3687134,4.840012468588407e-06,1.255582496651622,-7.7496600585947935,-0.20098531273792883,-1.3297472528992105,9.78112501734319,-0.0010890766539956055,-0.0010925820947669776,0.001090830782496456,2.2475869320155923,1.5036133090102448,-98.5625
1773078197.3873289,4.840012468588407e-06,1.255582496651622,-7.7496600585947935,-0.19994077398284535,-1.3299387222057715,9.780748686474626,-0.0010855712132242336,-0.003274240843529561,0.001090830782496456,1.5596861255621426,1.752508328005591,-97.5
1773078197.415156,4.840012468588407e-06,1.255582496651622,-7.7496600585947935,-0.19924564510959974,-1.3300661428904357,9.780498242485487,-0.0010908293743812916,-1.7527203856859717e-06,-0.001090830782496456,1.5596861255621426,1.752508328005591,-97.5
1773078197.4285522,4.840012468588407e-06,1.255582496651622,-7.7496600585947935,-0.1987830446095531,-1.3301509399326974,9.780331574808358,-0.0010908293743812916,-1.7527203856859717e-06,0.001090830782496456,1.5596861255621426,1.752508328005591,-97.5
1773078197.4580865,4.840012468588407e-06,1.255582496651622,-7.7496600585947935,-0.19848056398853745,-1.3268622640278451,9.786910882745667,0.0010855712132242336,0.003274240843529561,0.0,1.997587254731816,1.5032116150871795,-98.25
1773078197.4927924,4.840012468588407e-06,1.255582496651622,-7.7496600585947935,-0.19848056398853745,-1.3268622640278451,9.786910882745667,0.0010855712132242336,0.003274240843529561,0.0,1.997587254731816,1.5032116150871795,-98.25
1773078197.5255072,4.840012468588407e-06,1.255582496651622,-7.7496600585947935,-0.2016243739034136,-1.3246790617942623,9.781254003560303,0.002178153307991211,0.0021851641895339552,-0.001090830782496456,1.997587254731816,1.5032116150871795,-98.25
1773078197.545182,4.840012468588407e-06,1.255582496651622,-7.7496600585947935,-0.20706165167233792,-1.323231539939959,9.777489413653925,-0.0010908293743812916,-1.7527203856859717e-06,0.003272492347489368,2.248892437265555,0.6911143578379727,-97.875
1773078197.5877721,4.840012468588407e-06,1.255582496651622,-7.7496600585947935,-0.20706165167233792,-1.323231539939959,9.777489413653925,-0.0010908293743812916,-1.7527203856859717e-06,0.003272492347489368,2.248892437265555,0.6911143578379727,-97.875
1773078197.6176283,4.840012468588407e-06,1.255582496651622,-7.7496600585947935,-0.2073296170557733,-1.325607962860852,9.774984121124454,-1.7527203856859717e-06,0.0010908293743812916,-0.001090830782496456,2.248892437265555,0.6911143578379727,-97.875
1773078197.643104,4.840012468588407e-06,1.255582496651622,-7.7496600585947935,-0.20750794502508008,-1.3271894457683224,9.773316876932043,-0.002178153307991211,-0.0021851641895339552,0.001090830782496456,2.6868939899159945,0.37931772559861704,-97.0625
1773078197.6803336,4.840012468588407e-06,1.255582496651622,-7.7496600585947935,-0.2076266202965998,-1.3282419049769225,9.775552456253651,1.7527203856859717e-06,-0.0010908293743812916,-0.001090830782496456,2.6868939899159945,0.37931772559861704,-97.0625
1773078197.7771697,4.840012468588407e-06,1.255582496651622,-7.7496600585947935,-0.20770559736410651,-1.3289423048235063,9.773695097611805,-3.5054407713719433e-06,0.002181658748762583,-0.001090830782496456,2.2499970955539847,0.0036152453075885293,-98.25
1773078197.8176203,0.6049597868371428,0.26841385488883374,125.38822885042732,-0.2044130483310685,-1.3294030382532496,9.769113934476392,-0.0010978402559240355,0.0043615647771394804,-0.001090830782496456,2.2499970955539847,0.0036152453075885293,-98.25
1773078197.8533628,0.6049597868371428,0.26841385488883374,125.38822885042732,-0.2044130483310685,-1.3294030382532496,9.769113934476392,-0.0010978402559240355,0.0043615647771394804,-0.001090830782496456,2.2499970955539847,0.0036152453075885293,-98.25
1773078197.8908355,4.840012468588407e-06,1.255582496651622,-7.7496600585947935,-0.20222189372976435,-1.3297096512040139,9.76606522158472,-1.7527203856859717e-06,0.0010908293743812916,-0.001090830782496456,2.684684673339135,1.7543159506593855,-97.875
1773078197.9196465,4.840012468588407e-06,1.255582496651622,-7.7496600585947935,-0.20410881220862923,-1.329919073541836,9.764036337211666,-0.0010908293743812916,-1.7527203856859717e-06,0.001090830782496456,2.684684673339135,1.7543159506593855,-97.875
1773078197.9710999,4.840012468588407e-06,1.255582496651622,-7.7496600585947935,-0.20410881220862923,-1.329919073541836,9.764036337211666,-0.0010908293743812916,-1.7527203856859717e-06,0.001090830782496456,2.684684673339135,1.7543159506593855,-97.875
1773078198.006633,4.840012468588407e-06,1.255582496651622,-7.7496600585947935,-0.20536453537805327,-1.3300584417682557,9.762686137325522,-5.258161157057915e-06,0.003272488123143875,0.0,1.9971855608087508,1.7532112923709555,-97.0625
1773078198.049398,4.840012468588407e-06,1.255582496651622,-7.7496600585947935,-0.20620020511995807,-1.330151189766093,9.768477817798653,-0.0010890766539956055,-0.0010925820947669776,0.001090830782496456,1.9971855608087508,1.7532112923709555,-97.0625
1773078198.1171842,4.840012468588407e-06,1.255582496651622,-7.7496600585947935,-0.20620020511995807,-1.330151189766093,9.768477817798653,-0.0010890766539956055,-0.0010925820947669776,0.001090830782496456,1.9971855608087508,1.7532112923709555,-97.0625
1773078198.1477149,4.840012468588407e-06,1.255582496651622,-7.7496600585947935,-0.20676170884233225,-1.3268678051333584,9.772332116456212,-0.0010873239336099197,-0.0021834114691482694,0.001090830782496456,1.9987923365010123,0.7532125832358513,-97.75
1773078198.2046955,4.840012468588407e-06,1.255582496651622,-7.7496600585947935,-0.20404432692758567,-1.3198781368815886,9.76991385973269,-0.0010925820947669776,0.0010890766539956057,-0.001090830782496456,1.9982902190971805,1.0657121798405713,-98.6875
1773078198.2409554,4.840012468588407e-06,1.255582496651622,-7.7496600585947935,-0.20404432692758567,-1.3198781368815886,9.76991385973269,-0.0010925820947669776,0.0010890766539956057,-0.001090830782496456,1.9982902190971805,1.0657121798405713,-98.6875
1773078198.287383,4.840012468588407e-06,1.255582496651622,-7.7496600585947935,-0.2019818885988137,-1.3200258283520616,9.766597562907036,3.5054407713719433e-06,-0.002181658748762583,0.001090830782496456,1.9982902190971805,1.0657121798405713,-98.6875
1773078198.3153,4.840012468588407e-06,1.255582496651622,-7.7496600585947935,-0.20395446631919376,-1.3201294902200187,9.767735716122345,1.7527203856859717e-06,-0.0010908293743812916,-0.001090830782496456,2.686391872512163,0.6918173222033371,-97.875
1773078198.3550098,4.840012468588407e-06,1.255582496651622,-7.7496600585947935,-0.20395446631919376,-1.3201294902200187,9.767735716122345,1.7527203856859717e-06,-0.0010908293743812916,-0.001090830782496456,2.686391872512163,0.6918173222033371,-97.875
1773078198.4051442,4.840012468588407e-06,1.255582496651622,-7.7496600585947935,-0.20526719475696972,-1.3201984760351653,9.76849314437313,0.0010925820947669776,-0.0010890766539956057,0.0,2.686391872512163,0.6918173222033371,-97.875
1773078198.437744,4.840012468588407e-06,1.255582496651622,-7.7496600585947935,-0.19944521124552875,-1.3235787430253967,9.768997204412997,0.0,0.0,0.0,1.2482911872458524,1.0645070980713751,-98.25
1773078198.4704392,4.840012468588407e-06,1.255582496651622,-7.7496600585947935,-0.19557612109866113,-1.3224831655581075,9.77267776244613,0.0,0.0,0.0,1.2482911872458524,1.0645070980713751,-98.25
1773078198.5329773,0.6049597868371428,0.26841385488883374,125.38822885042732,-0.1929959099823104,-1.3250991783812607,9.775127132702652,3.5054407713719433e-06,-0.002181658748762583,0.0,2.6850863672622003,1.5043162733756092,-98.25
1773078198.5706875,0.6049597868371428,0.26841385488883374,125.38822885042732,-0.1929959099823104,-1.3250991783812607,9.775127132702652,3.5054407713719433e-06,-0.002181658748762583,0.0,2.6850863672622003,1.5043162733756092,-98.25
1773078198.6643653,4.840012468588407e-06,1.255582496651622,-7.7496600585947935,-0.19348120371297148,-1.328004048214529,9.774496815327515,-1.7527203856859717e-06,0.0010908293743812916,0.0,1.997587254731816,1.5032116150871795,-98.25
1773078198.6929028,4.840012468588407e-06,1.255582496651622,-7.7496600585947935,-0.1982919806423587,-1.3287840138051674,9.772992580367742,-0.0010855712132242336,-0.003274240843529561,0.0,1.997587254731816,1.5032116150871795,-98.25
1773078198.728079,4.840012468588407e-06,1.255582496651622,-7.7496600585947935,-0.2014988737931456,-1.3259579648037187,9.771991528805419,-0.0010925820947669776,0.0010890766539956057,0.0,3.060788847553229,1.0674193790135993,-97.5
1773078198.763182,4.840012468588407e-06,1.255582496651622,-7.7496600585947935,-0.2014988737931456,-1.3259579648037187,9.771991528805419,-0.0010925820947669776,0.0010890766539956057,0.0,3.060788847553229,1.0674193790135993,-97.5
1773078198.7903457,4.840012468588407e-06,1.255582496651622,-7.7496600585947935,-0.20363302536165054,-1.3240772607622904,9.771325340173172,0.0,0.0,-0.002181661564992912,3.060788847553229,1.0674193790135993,-97.5
1773078198.816109,4.840012468588407e-06,1.255582496651622,-7.7496600585947935,-0.20363302536165054,-1.3240772607622904,9.771325340173172,0.0,0.0,-0.002181661564992912,3.060788847553229,1.0674193790135993,-97.5
1773078198.837799,4.840012468588407e-06,1.255582496651622,-7.7496600585947935,-0.20363302536165054,-1.3240772607622904,9.771325340173172,0.0,0.0,-0.002181661564992912,3.060788847553229,1.0674193790135993,-97.5
1773078198.8734818,4.840012468588407e-06,1.255582496651622,-7.7496600585947935,-0.20265333519211606,-1.3219873808668294,9.77615820671651,-0.002183411469148269,0.0010873239336099197,-0.002181661564992912,2.2475869320155923,1.5036133090102448,-97.5
1773078198.9590566,4.840012468588407e-06,1.255582496651622,-7.7496600585947935,-0.20105082429307525,-1.3247746140516723,9.77744332948548,0.0010908293743812916,1.7527203856859717e-06,0.0,2.2487920137847888,0.7536142771589167,-97.75
1773078199.0367212,4.840012468588407e-06,1.255582496651622,-7.7496600585947935,-0.1999897460351625,-1.3232843792115183,9.77160834091783,-0.0010890766539956055,-0.0010925820947669776,0.0,2.2487920137847888,0.7536142771589167,-97.75
1773078199.0802605,4.840012468588407e-06,1.255582496651622,-7.7496600585947935,-0.20262871769677446,-1.322298019416589,9.764380109499832,0.0010890766539956055,0.0010925820947669776,0.0,1.5612929012544041,0.7525096188704868,-97.0625
1773078199.1057162,4.840012468588407e-06,1.255582496651622,-7.7496600585947935,-0.20438492385833215,-1.3216416079914244,9.75956980223579,-0.0010925820947669776,0.0010890766539956057,0.001090830782496456,1.5612929012544041,0.7525096188704868,-97.0625
1773078199.1342938,4.840012468588407e-06,1.255582496651622,-7.7496600585947935,-0.20438492385833215,-1.3216416079914244,9.75956980223579,-0.0010925820947669776,0.0010890766539956057,0.001090830782496456,1.5612929012544041,0.7525096188704868,-97.0625
1773078199.1852014,4.840012468588407e-06,1.255582496651622,-7.7496600585947935,-0.2063314399152015,-1.3209140650599829,9.764273564941655,0.0010925820947669776,-0.0010890766539956057,0.001090830782496456,2.6857893316275647,1.0668168381290013,-97.75
1773078199.2389212,4.840012468588407e-06,1.255582496651622,-7.7496600585947935,-0.2063314399152015,-1.3209140650599829,9.764273564941655,0.0010925820947669776,-0.0010890766539956057,0.001090830782496456,2.6857893316275647,1.0668168381290013,-97.75
1773078199.2726007,4.840012468588407e-06,1.255582496651622,-7.7496600585947935,-0.20350931158752514,-1.3173701195934748,9.769534233144462,0.0,0.0,-0.001090830782496456,1.560087819485208,1.502508650721815,-98.5625
1773078199.3345191,4.840012468588407e-06,1.255582496651622,-7.7496600585947935,-0.20163121671069556,-1.3150116634739784,9.773035149067915,-3.5054407713719433e-06,0.002181658748762583,-0.002181661564992912,1.560087819485208,1.502508650721815,-98.5625
1773078199.4232242,4.840012468588407e-06,1.255582496651622,-7.7496600585947935,-0.20163121671069556,-1.3150116634739784,9.773035149067915,-0.0010908293743812916,-1.7527203856859717e-06,0.001090830782496456,1.997587254731816,1.5032116150871795,-97.875
1773078199.4480958,4.840012468588407e-06,1.255582496651622,-7.7496600585947935,-0.20038136554985994,-1.3134421372721348,9.772019857799862,-1.7527203856859717e-06,0.0010908293743812916,-0.002181661564992912,1.997587254731816,1.5032116150871795,-97.875
1773078199.4660337,4.840012468588407e-06,1.255582496651622,-7.7496600585947935,-0.20288933610912896,-1.3157481173509757,9.771344192802518,1.7527203856859717e-06,-0.0010908293743812916,-0.001090830782496456,3.0600858831878646,1.5049188142602075,-98.25
1773078199.4971292,4.840012468588407e-06,1.255582496651622,-7.7496600585947935,-0.20455836250045567,-1.317282721333959,9.767549433587138,-1.7527203856859717e-06,0.0010908293743812916,0.0,3.0600858831878646,1.5049188142602075,-98.25
1773078199.5213635,4.840012468588407e-06,1.255582496651622,-7.7496600585947935,-0.19897349129699374,-1.3216383408428583,9.765024063719542,-0.0010925820947669776,0.0010890766539956057,-0.001090830782496456,3.0600858831878646,1.5049188142602075,-98.25
1773078199.5471857,4.840012468588407e-06,1.255582496651622,-7.7496600585947935,-0.19897349129699374,-1.3216383408428583,9.765024063719542,-0.0010925820947669776,0.0010890766539956057,-0.001090830782496456,3.0600858831878646,1.5049188142602075,-98.25
1773078199.5964994,4.840012468588407e-06,1.255582496651622,-7.7496600585947935,-0.19279237167414148,-1.320894714634435,9.767796280319578,0.0010943348151526634,-0.0021799060283768973,0.0,1.9982902190971805,1.0657121798405713,-97.875
1773078199.6591303,4.840012468588407e-06,1.255582496651622,-7.7496600585947935,-0.19279237167414148,-1.320894714634435,9.767796280319578,0.0010943348151526634,-0.0021799060283768973,0.0,1.9982902190971805,1.0657121798405713,-97.875
1773078199.7034953,4.840012468588407e-06,1.255582496651622,-7.7496600585947935,-0.1944938380702225,-1.3207023494906633,9.76853344916984,0.0,0.0,0.001090830782496456,1.5596861255621426,1.752508328005591,-98.25
1773078199.8454885,4.840012468588407e-06,1.255582496651622,-7.7496600585947935,-0.1956207701060102,-1.3239194400255747,9.772369138512294,-0.0010890766539956055,-0.0010925820947669776,0.001090830782496456,1.5596861255621426,1.752508328005591,-98.25
1773078199.9266984,4.840012468588407e-06,1.255582496651622,-7.7496600585947935,-0.1963707307871712,-1.3260603778393023,9.77492174692224,-0.0010925820947669776,0.0010890766539956057,0.0,2.6862914490313967,0.7543172415242811,-97.0625
1773078199.9527442,4.840012468588407e-06,1.255582496651622,-7.7496600585947935,-0.19687519608705337,-1.3241400406492634,9.776620479304555,0.0010943348151526634,-0.0021799060283768973,0.0,2.6862914490313967,0.7543172415242811,-97.0625
1773078200.0172718,4.840012468588407e-06,1.255582496651622,-7.7496600585947935,-0.19386580471964618,-1.3228567028566853,9.77440585502158,0.002178153307991211,0.0021851641895339552,-0.002181661564992912,3.060788847553229,1.0674193790135993,-98.25
1773078200.075036,4.840012468588407e-06,1.255582496651622,-7.7496600585947935,-0.19186308838174096,-1.322002655891547,9.776277159007556,-0.0010908293743812916,-1.7527203856859717e-06,-0.001090830782496456,3.060788847553229,1.0674193790135993,-98.25
1773078200.132984,4.840012468588407e-06,1.255582496651622,-7.7496600585947935,-0.19186308838174096,-1.322002655891547,9.776277159007556,-0.0010908293743812916,-1.7527203856859717e-06,-0.001090830782496456,3.060788847553229,1.0674193790135993,-98.25
1773078200.1945164,4.840012468588407e-06,1.255582496651622,-7.7496600585947935,-0.1938754104199045,-1.3214396720207564,9.784212714321026,3.5054407713719433e-06,-0.002181658748762583,0.0,2.2475869320155923,1.5036133090102448,-97.75
1773078200.224224,4.840012468588407e-06,1.255582496651622,-7.7496600585947935,-0.1985596956464244,-1.3210703873878664,9.78949373773618,-0.0010873239336099197,-0.0021834114691482694,0.001090830782496456,2.2475869320155923,1.5036133090102448,-97.75
1773078200.2998714,4.840012468588407e-06,1.255582496651622,-7.7496600585947935,-0.19833192774854666,-1.3208192577456788,9.786317976411429,-5.258161157057915e-06,0.003272488123143875,0.0,2.686391872512163,0.6918173222033371,-98.6875
1773078200.3262331,4.840012468588407e-06,1.255582496651622,-7.7496600585947935,-0.19817497591266398,-1.3239972411633367,9.780859431018065,-0.0010943348151526634,0.0021799060283768973,-0.001090830782496456,2.686391872512163,0.6918173222033371,-98.6875
1773078200.3418052,4.840012468588407e-06,1.255582496651622,-7.7496600585947935,-0.19817497591266398,-1.3239972411633367,9.780859431018065,-0.0010943348151526634,0.0021799060283768973,-0.001090830782496456,2.686391872512163,0.6918173222033371,-98.6875
1773078200.444922,4.840012468588407e-06,1.255582496651622,-7.7496600585947935,-0.19807052621915092,-1.3261121536273872,9.77388171832741,0.0010890766539956055,0.0010925820947669776,0.0,2.6850863672622003,1.5043162733756092,-97.5
1773078200.4852042,4.840012468588407e-06,1.255582496651622,-7.7496600585947935,-0.20134612350412961,-1.327524979091272,9.769238128477937,-0.0010960875355383495,0.003270735402758189,0.0,2.6850863672622003,1.5043162733756092,-97.5
1773078200.5495284,4.840012468588407e-06,1.255582496651622,-7.7496600585947935,-0.20134612350412961,-1.327524979091272,9.769238128477937,-0.0010960875355383495,0.003270735402758189,0.0,2.6850863672622003,1.5043162733756092,-97.5
1773078200.5920997,4.840012468588407e-06,1.255582496651622,-7.7496600585947935,-0.20352599690646372,-1.3284651986551927,9.772838094720049,1.7527203856859717e-06,-0.0010908293743812916,-0.001090830782496456,0.8732916713201884,1.0639045571867771,-97.5
1773078200.61059,4.840012468588407e-06,1.255582496651622,-7.7496600585947935,-0.20497667830493566,-1.3290909042720411,9.775233832039916,-0.0021851641895339552,0.0021781533079912115,-0.001090830782496456,0.8732916713201884,1.0639045571867771,-97.5
1773078200.6256492,4.840012468588407e-06,1.255582496651622,-7.7496600585947935,-0.2026023580253928,-1.3261568221370525,9.77348305675683,1.7527203856859717e-06,-0.0010908293743812916,0.002181661564992912,1.9982902190971805,1.0657121798405713,-96.25
1773078200.66748,4.840012468588407e-06,1.255582496651622,-7.7496600585947935,-0.20102227440225237,-1.324204223252063,9.772317935363377,-3.5054407713719433e-06,0.002181658748762583,-0.001090830782496456,1.9982902190971805,1.0657121798405713,-96.25
1773078200.7147574,4.840012468588407e-06,1.255582496651622,-7.7496600585947935,-0.20331585379097514,-1.3229101653502402,9.771542560091293,-0.0010943348151526634,0.0021799060283768973,0.0,1.9982902190971805,1.0657121798405713,-96.25
1773078200.768937,-0.08738901091174775,1.1935936258470818,-7.792864918962704,-0.20483683040903042,-1.3253940916613831,9.764336333094592,0.015313676530594547,-0.026155366899751398,-0.004363323129985824,2.684684673339135,1.7543159506593855,-97.875
1773078200.8318212,-0.046280253252535965,1.2033696670952811,-7.820361827786663,-0.20577377553941503,-1.3738786203234234,9.759540669527118,-0.03144475805540338,-0.11786040132436439,0.017453292519943295,2.684684673339135,1.7543159506593855,-97.875
1773078200.8977156,-0.005656206513681074,1.2201422727331042,-7.847861891441812,-0.035796825206485555,-1.4058704154871982,9.793145437774548,-0.020785350606357864,0.037054897041635886,0.032724923474893676,2.2487920137847888,0.7536142771589167,-98.25
1773078200.9750721,0.10567603030034135,1.2347853046692303,-7.832718593004843,-0.18694254727620543,-1.4275852104870805,9.815509035653355,0.006539718085130692,0.0032830044454579908,-0.008726646259971648,2.2487920137847888,0.7536142771589167,-98.25
1773078201.0146375,0.23762909277420258,1.2577991460039701,-7.8033545849451915,-0.0668372467228075,-1.3881597060458062,9.830391760223943,0.0195911107292211,0.02730228332647464,0.06872233929727672,2.684684673339135,1.7543159506593855,-104.75
1773078201.0415595,0.5198047725584266,1.3331581518408875,-7.81393238146427,-0.16441957110928782,-1.2250579370348618,9.813535153516188,-0.012020155762822438,0.013070672568332956,0.19744037163185854,2.684684673339135,1.7543159506593855,-104.75
1773078201.0769327,1.0110833898481795,1.4298242630436908,-7.807917905400155,-0.07213947062859373,-1.1162629140477953,9.87590972761384,0.007607762094498066,0.01746553903280047,0.3337942194439155,2.684684673339135,1.7543159506593855,-104.75
1773078201.1249514,3.282200890679596,1.672733665470485,-7.677452215796729,-0.010728094594957535,-1.0438610415699405,9.870587746003707,0.03059405137386106,-0.03158497568625825,1.0242901047641721,0.8732916713201884,1.0639045571867771,-97.5
1773078201.147187,3.282200890679596,1.672733665470485,-7.677452215796729,-0.010728094594957535,-1.0438610415699405,9.870587746003707,0.03059405137386106,-0.03158497568625825,1.0242901047641721,0.8732916713201884,1.0639045571867771,-97.5
1773078201.1944852,8.362380333213677,2.285246956230551,-7.492301635303133,0.06668942859471676,-0.841744341027189,9.913877590595066,-0.11893019805411745,0.018353052842442187,2.284199658547579,0.8732916713201884,1.0639045571867771,-97.5
1773078201.2549174,13.88949185515807,3.1196046496589718,-7.507988939849412,0.11820992546704612,-0.70723793460747,10.126667642493931,-0.12885107292630457,0.08269621144746722,2.614721385644005,-0.564206473061524,1.0615948171291512,-93.0625
1773078201.331668,0.08523035790248341,-0.0074128613076220075,-4.67722752530252,-0.0813119117606768,-0.8355336430627895,10.268277045011999,-0.2983158617347403,-0.35609062143397907,2.306016274197508,-0.564206473061524,1.0615948171291512,-93.0625
1773078201.3814008,39.19549794091968,5.129867268841263,-7.130090239840162,-0.20222517522566752,-0.9006332994809102,9.870321535086601,-0.06098829262375392,-0.06118459730695075,2.91469985083053,-12.574635024682474,7.54230511820019,-88.0
1773078201.4499614,39.19549794091968,5.129867268841263,-7.130090239840162,-0.19436591542547765,-0.8637216310159449,9.736409509715577,-0.013406079456483594,-0.4821693688415448,2.86561246561819,-18.086578319136745,14.970958251085088,-81.5625
1773078201.5023942,53.63140408613553,4.548743887454969,-6.028077491113059,-0.19436591542547765,-0.8637216310159449,9.736409509715577,-0.013406079456483594,-0.4821693688415448,2.86561246561819,-18.086578319136745,14.970958251085088,-81.5625
1773078201.5895016,59.56431982882463,3.9251881265624924,-5.7815014958017255,-0.35304592789450906,-0.8394206953476462,9.570354983458152,-0.08973609213700304,-0.4997453292586435,2.550362369476714,-18.086578319136745,14.970958251085088,-81.5625
1773078201.677824,82.25448642765429,2.945860130032174,-4.58150180233199,-0.9128196301588946,-0.4899705518282793,9.409721871406415,0.14399473557948758,-0.0030411290322333267,1.8282323914640601,-28.422965795514894,29.829369175143317,-68.375
1773078201.731869,82.25448642765429,2.945860130032174,-4.58150180233199,-0.9128196301588946,-0.4899705518282793,9.409721871406415,0.14399473557948758,-0.0030411290322333267,1.8282323914640601,-28.422965795514894,29.829369175143317,-68.375
1773078201.7901888,88.49413972065813,3.7187273085185373,-3.0213164323350847,-1.23372997542132,-0.6228512994911399,9.705152871296198,0.2594789261922782,0.08659266802791529,0.980656873464314,-30.747011510677954,37.01314422826353,-64.5
1773078201.8214462,89.22116658053842,4.052191634451342,-2.64899598758134,-1.3218160288760679,-1.0274614609628085,9.770331412432663,0.18624788231671974,0.17701407383572154,0.4406956361285682,-30.747011510677954,37.01314422826353,-64.5
1773078201.8788135,89.22116658053842,4.052191634451342,-2.64899598758134,-1.3218160288760679,-1.0274614609628085,9.770331412432663,0.18624788231671974,0.17701407383572154,0.4406956361285682,-30.747011510677954,37.01314422826353,-64.5
1773078201.93552,88.32379788647278,5.814589486228939,-3.695772661613041,-1.3803395662692857,-1.3569369366367285,9.686592758588834,-0.0825711310055989,0.4721976650781728,-0.17562375598192942,-32.813425364019,39.447327106915054,-65.0
1773078201.955482,88.52681912487564,4.773846820516801,-4.274095106624224,-1.3423488567013855,-1.5760755637993813,9.63086561987782,-0.258949604635801,-0.41602313909106536,0.16144295580947549,-32.813425364019,39.447327106915054,-65.0
1773078202.0490713,90.59923362257139,3.6686676922895054,-4.571899076556469,-1.261091862384785,-1.1665306732736886,9.570364049627333,-0.11511086117063955,-0.32198045380336376,0.49414634447089456,-34.31673740258694,41.507414280967815,-65.375
1773078202.1103542,91.89011412064346,3.844274238123435,-4.5632010476672615,-0.9026114679470675,-0.8934940127247197,9.530100930472457,-0.09266265704968216,-0.036146350587365934,-0.07417649320975901,-34.31673740258694,41.507414280967815,-65.375
1773078202.141626,91.89011412064346,3.844274238123435,-4.5632010476672615,-0.9026114679470675,-0.8934940127247197,9.530100930472457,-0.09266265704968216,-0.036146350587365934,-0.07417649320975901,-34.31673740258694,41.507414280967815,-65.375
1773078202.179137,91.94512552152031,3.8172402190189785,-4.581772011493397,-0.513592264134218,-1.6661351993405897,9.488819841879298,-0.0032847571658436766,0.007630547459511984,-0.04036073895236887,-34.57075401910137,44.00700935988251,-65.0
1773078202.28075,91.85352107933072,3.7831813685263773,-4.545589905123671,-0.4142965586187176,-1.7846243024083064,9.562807075514929,-0.0010768076112958038,-0.008728387715436018,-0.025089107997418487,-35.63485942324968,45.00530086984458,-65.75
1773078202.3321655,91.82435829801699,3.747790506166202,-4.571813508324484,-0.3184705238607799,-1.6393069082136995,9.612044753007888,0.004391361023696142,-0.017446259108557922,-0.01090830782496456,-35.63485942324968,45.00530086984458,-65.75
1773078202.3867059,91.82087018182257,3.7127936541298587,-4.567311739121348,-0.24131893861939094,-1.5425783063021283,9.638121653943916,0.007656838265297274,-0.013077683449875699,-0.002181661564992912,-36.072358858496294,45.004597905479216,-65.75
1773078202.405373,91.82087018182257,3.7127936541298587,-4.567311739121348,-0.24131893861939094,-1.5425783063021283,9.638121653943916,0.007656838265297274,-0.013077683449875699,-0.002181661564992912,-36.072358858496294,45.004597905479216,-65.75
1773078202.4199698,91.83109488313669,3.7130455353735665,-4.557087037807248,-0.18997542048092392,-1.4782065022592603,9.655475540218774,0.009822722530588681,-0.0032567136396727016,0.014180800172453928,-36.072358858496294,45.004597905479216,-65.75
