timestamp,yaw,pitch,roll,ax,ay,az,gx,gy,gz,mx,my,mz
1772746832.2959836,-0.11101308555578686,1.4084688011360476,-9.012690745091135,-0.23209382878861498,-1.5472740763997674,9.735479398424383,-0.001090830782496456,0.003272492347489368,0.0,-1.75,63.25,-91.0625
1772746832.5801992,-0.11109934259339191,1.4084688011360476,-9.019750915201193,-0.23061711126812712,-1.5525417040080347,9.738667649338764,-0.001090830782496456,-0.001090830782496456,-0.001090830782496456,-2.0625,63.375,-92.0
1772746832.804201,-0.11109934259339191,1.4084688011360476,-9.019750915201193,-0.23778936967646888,-1.5519737693628266,9.738115209928479,0.0,0.001090830782496456,0.0,-1.375,63.6875,-91.5625
1772746832.8696342,-0.11109934259339191,1.4084688011360476,-9.019750915201193,-0.2385288502140488,-1.5513135214625127,9.745435916676525,0.0,-0.001090830782496456,-0.001090830782496456,-1.375,63.6875,-91.5625
1772746832.902899,-0.11109934259339191,1.4084688011360476,-9.019750915201193,-0.2323307428366306,-1.550874133860306,9.746962653532378,0.0,-0.003272492347489368,-0.001090830782496456,-2.5,63.6875,-91.0625
1772746832.9397535,-0.11109934259339191,1.4084688011360476,-9.019750915201193,-0.22820597161435485,-1.5505817263193187,9.741288456440543,0.0,-0.003272492347489368,0.001090830782496456,-2.5,63.6875,-91.0625
1772746832.9590065,-0.11109934259339191,1.4084688011360476,-9.019750915201193,-0.22546098244264395,-1.5470420206598785,9.73751234166086,0.0,0.002181661564992912,0.001090830782496456,-1.375,63.375,-92.0
1772746832.9883335,-0.11109934259339191,1.4084688011360476,-9.019750915201193,-0.22363422281240858,-1.544686386084624,9.738344491164266,-0.002181661564992912,-0.003272492347489368,0.0,-1.375,63.375,-92.0
1772746833.0018246,-0.11109934259339191,1.4084688011360476,-9.019750915201193,-0.22576364639204846,-1.546463849296274,9.738898277363065,0.0,0.0,0.0,-1.375,63.375,-92.0
1772746833.0148091,-0.11109934259339191,1.4084688011360476,-9.019750915201193,-0.22576364639204846,-1.546463849296274,9.738898277363065,0.0,0.0,0.0,-1.375,63.375,-92.0
1772746833.0463493,-6.143825418109345e-07,1.408476589229398,-9.019800588946639,-0.22576364639204846,-1.546463849296274,9.738898277363065,0.0,0.0,0.0,-1.375,63.375,-92.0
1772746833.1001356,-6.143825418109345e-07,1.408476589229398,-9.019800588946639,-0.2306986285780742,-1.545539055483823,9.739512074166441,-0.0010950590785172123,0.0021795422901990653,-0.001090830782496456,-1.8721567410044486,62.996488228607724,-92.375
1772746833.1283574,-6.143825418109345e-07,1.408476589229398,-9.019800588946639,-0.2306986285780742,-1.545539055483823,9.739512074166441,-0.0010950590785172123,0.0021795422901990653,-0.001090830782496456,-1.8721567410044486,62.996488228607724,-92.375
1772746833.1511257,-6.143825418109345e-07,1.408476589229398,-9.019800588946639,-0.2294658896651247,-1.543834396743609,9.739675290808256,-0.0010908287317830685,-2.1151733670718688e-06,-0.002181661564992912,-1.4984905415633698,63.684714079179514,-93.1875
1772746833.1900442,-6.143825418109345e-07,1.408476589229398,-9.019800588946639,-0.22863902935661914,-1.5460450708129403,9.739783909660133,0.0010887135584159967,0.0010929439051501405,-0.001090830782496456,-1.4984905415633698,63.684714079179514,-93.1875
1772746833.2093668,-6.143825418109345e-07,1.408476589229398,-9.019800588946639,-0.22863902935661914,-1.5460450708129403,9.739783909660133,0.0010887135584159967,0.0010929439051501405,-0.001090830782496456,-1.4984905415633698,63.684714079179514,-93.1875
1772746833.226746,-6.143825418109345e-07,1.408476589229398,-9.019800588946639,-0.2280887630579435,-1.5475162497112331,9.739856194292706,0.0010887135584159967,0.0010929439051501405,-0.002181661564992912,-1.1234912465467024,63.685441222220746,-91.5625
1772746833.245366,-6.143825418109345e-07,1.408476589229398,-9.019800588946639,-0.2277225669830522,-1.5484953028339017,9.739904298908211,2.1151733670718688e-06,-0.0010908287317830685,0.001090830782496456,-1.1234912465467024,63.685441222220746,-91.5625
1772746833.259006,-6.143825418109345e-07,1.408476589229398,-9.019800588946639,-0.2277225669830522,-1.5484953028339017,9.739904298908211,2.1151733670718688e-06,-0.0010908287317830685,0.001090830782496456,-1.1234912465467024,63.685441222220746,-91.5625
1772746833.2936091,-6.143825418109345e-07,1.408476589229398,-9.019800588946639,-0.2274853539184239,-1.5458017463316396,9.739936311992466,-0.0010929439051501403,0.0010887135584159967,-0.001090830782496456,-1.1234912465467024,63.685441222220746,-91.5625
1772746833.327772,-6.143825418109345e-07,1.408476589229398,-9.019800588946639,-0.2306661103598817,-1.5473608063195736,9.749992951464385,-0.0010929439051501403,0.0010887135584159967,0.0,-2.6234884266133727,63.68253265005582,-91.1875
1772746833.361754,-6.143825418109345e-07,1.408476589229398,-9.019800588946639,-0.23278935457282796,-1.5450532379070443,9.756685532692924,-0.0010908287317830685,-2.1151733670718688e-06,-0.001090830782496456,-2.6234884266133727,63.68253265005582,-91.1875
1772746833.4133883,-6.143825418109345e-07,1.408476589229398,-9.019800588946639,-0.23419586354581806,-1.5468626823243923,9.761139370739485,-0.0010929439051501403,0.0010887135584159967,-0.001090830782496456,-1.4984905415633698,63.684714079179514,-91.5625
1772746833.4391894,-6.143825418109345e-07,1.408476589229398,-9.019800588946639,-0.22844815505082586,-1.5447087692875936,9.754068015084883,2.1151733670718688e-06,-0.0010908287317830685,-0.001090830782496456,-1.4984905415633698,63.684714079179514,-91.5625
1772746833.4612567,-6.143825418109345e-07,1.408476589229398,-9.019800588946639,-0.22844815505082586,-1.5447087692875936,9.754068015084883,2.1151733670718688e-06,-0.0010908287317830685,-0.001090830782496456,-1.4984905415633698,63.684714079179514,-91.5625
1772746833.4850442,-6.143825418109345e-07,1.408476589229398,-9.019800588946639,-0.22461663292098574,-1.5466204696410473,9.749362106888965,0.0010887135584159967,0.0010929439051501405,-0.001090830782496456,-1.4984905415633698,63.684714079179514,-91.5625
1772746833.5121603,-6.143825418109345e-07,1.408476589229398,-9.019800588946639,-0.2254054168306082,-1.5512442766223702,9.74623037755302,-0.0010908287317830685,-2.1151733670718688e-06,0.001090830782496456,-1.4992176846046001,64.05971337419618,-92.375
1772746833.5334387,-6.143825418109345e-07,1.408476589229398,-9.019800588946639,-0.22593034371116832,-1.5543213685171322,9.744146246663657,4.2303467341437376e-06,-0.002181657463566137,0.001090830782496456,-1.4992176846046001,64.05971337419618,-92.375
1772746833.552003,-6.143825418109345e-07,1.408476589229398,-9.019800588946639,-0.22593034371116832,-1.5543213685171322,9.744146246663657,4.2303467341437376e-06,-0.002181657463566137,0.001090830782496456,-1.4992176846046001,64.05971337419618,-92.375
1772746833.5797684,-6.143825418109345e-07,1.408476589229398,-9.019800588946639,-0.22627967668636362,-1.5563691387997278,9.742759280838055,-0.0010865983850489246,-0.002183772636933209,-0.001090830782496456,-1.4992176846046001,64.05971337419618,-92.375
1772746833.6017783,-6.143825418109345e-07,1.408476589229398,-9.019800588946639,-0.22987023196277637,-1.5510481825429197,9.73849115886722,0.0010950590785172123,-0.0021795422901990653,-0.001090830782496456,-2.6234884266133727,63.68253265005582,-92.0
1772746833.6289465,-6.143825418109345e-07,1.408476589229398,-9.019800588946639,-0.23225970639009857,-1.5475071455929899,9.735650771373676,-4.2303467341437376e-06,0.002181657463566137,-0.001090830782496456,-2.6234884266133727,63.68253265005582,-92.0
1772746833.712075,-6.143825418109345e-07,1.408476589229398,-9.019800588946639,-0.2305047695106452,-1.5451441387262526,9.733760525225929,-0.0010908287317830685,-2.1151733670718688e-06,-0.001090830782496456,-2.6234884266133727,63.68253265005582,-92.0
1772746833.783639,-6.143825418109345e-07,1.408476589229398,-9.019800588946639,-0.22855317394810049,-1.5458701719031205,9.731665444045506,-0.0010908287317830685,-2.1151733670718688e-06,0.001090830782496456,-1.122885294012344,63.37294180970685,-91.5625
1772746833.844206,-6.143825418109345e-07,1.408476589229398,-9.019800588946639,-0.22855317394810049,-1.5458701719031205,9.731665444045506,-0.0010908287317830685,-2.1151733670718688e-06,0.001090830782496456,-1.122885294012344,63.37294180970685,-91.5625
1772746833.8902059,-6.143825418109345e-07,1.408476589229398,-9.019800588946639,-0.22803162724264214,-1.5473998564404967,9.731108334408056,-0.002179542290199065,-0.0010950590785172123,-0.002181661564992912,-2.186716392135157,64.05838027862059,-92.75
1772746833.939266,-6.143825418109345e-07,1.408476589229398,-9.019800588946639,-0.22769103006875166,-1.5450727389937666,9.730737584167654,0.0010908287317830685,2.1151733670718688e-06,-0.003272492347489368,-2.186716392135157,64.05838027862059,-92.75
1772746833.9926612,-6.143825418109345e-07,1.408476589229398,-9.019800588946639,-0.22747085278678092,-1.540178962909915,9.7271457423169,0.0010887135584159967,0.0010929439051501405,0.0,-1.8715507884700902,62.68398881609384,-92.375
1772746834.04666,-6.143825418109345e-07,1.408476589229398,-9.019800588946639,-0.22731784093263713,-1.5402673150118305,9.724755411688726,0.0010887135584159967,0.0010929439051501405,0.0,-1.8715507884700902,62.68398881609384,-92.375
1772746834.0785553,-6.143825418109345e-07,1.408476589229398,-9.019800588946639,-0.22731784093263713,-1.5402673150118305,9.724755411688726,0.0010887135584159967,0.0010929439051501405,0.0,-1.8715507884700902,62.68398881609384,-92.375
1772746834.1497293,-6.143825418109345e-07,1.408476589229398,-9.019800588946639,-0.22714176173708903,-1.5437103467382314,9.728796278182283,-0.0010908287317830685,-2.1151733670718688e-06,0.0,-1.8721567410044486,62.996488228607724,-92.75
1772746834.171514,-6.143825418109345e-07,1.408476589229398,-9.019800588946639,-0.22714176173708903,-1.5437103467382314,9.728796278182283,-0.0010908287317830685,-2.1151733670718688e-06,0.0,-1.8721567410044486,62.996488228607724,-92.75
1772746834.1949844,-6.143825418109345e-07,1.408476589229398,-9.019800588946639,-0.2270858618501878,-1.549307622338749,9.729198936576763,-0.0010908287317830685,-2.1151733670718688e-06,0.0,-1.8721567410044486,62.996488228607724,-92.75
1772746834.2232544,-6.143825418109345e-07,1.408476589229398,-9.019800588946639,-0.22704866109989771,-1.5530325467252284,9.7294669012403,-0.0010908287317830685,-2.1151733670718688e-06,0.001090830782496456,-2.185989249093927,63.683380983603925,-92.0
1772746834.2631302,-6.143825418109345e-07,1.408476589229398,-9.019800588946639,-0.2236787989974812,-1.5555049559617646,9.729645228730524,0.0,0.0,0.001090830782496456,-2.185989249093927,63.683380983603925,-92.0
1772746834.2948687,-6.143825418109345e-07,1.408476589229398,-9.019800588946639,-0.22143619341214923,-1.5571503166900589,9.736454127097858,-0.0010865983850489246,-0.002183772636933209,0.001090830782496456,-1.4965514934534228,62.68471595913507,-93.5625
1772746834.3112054,-6.143825418109345e-07,1.408476589229398,-9.019800588946639,-0.21994376444665664,-1.558245285874855,9.740985372900939,-0.0010865983850489246,-0.002183772636933209,0.0,-1.4965514934534228,62.68471595913507,-93.5625
1772746834.3275492,-6.143825418109345e-07,1.408476589229398,-9.019800588946639,-0.22230864772537057,-1.552290251130947,9.740655754658238,-0.0010950590785172123,0.0021795422901990653,0.001090830782496456,-1.4965514934534228,62.68471595913507,-93.5625
1772746834.3956711,-6.143825418109345e-07,1.408476589229398,-9.019800588946639,-0.22230864772537057,-1.552290251130947,9.740655754658238,-0.0010950590785172123,0.0021795422901990653,0.001090830782496456,-1.4965514934534228,62.68471595913507,-93.5625
1772746834.4258263,-6.143825418109345e-07,1.408476589229398,-9.019800588946639,-0.22053734571121947,-1.5483207556984395,9.737091285692479,-2.1151733670718688e-06,0.0010908287317830685,0.0,-1.4984905415633698,63.684714079179514,-92.375
1772746834.4409206,-6.143825418109345e-07,1.408476589229398,-9.019800588946639,-0.22270366942619993,-1.545685587162809,9.731374059706175,2.1151733670718688e-06,-0.0010908287317830685,-0.001090830782496456,-1.4984905415633698,63.684714079179514,-92.375
1772746834.478172,-6.143825418109345e-07,1.408476589229398,-9.019800588946639,-0.22414533365909792,-1.543931911939108,9.727569309677888,0.0010929439051501403,-0.0010887135584159967,0.001090830782496456,-1.8715507884700902,62.68398881609384,-92.75
1772746834.50939,-6.143825418109345e-07,1.408476589229398,-9.019800588946639,-0.22509825876911324,-1.546109966086229,9.721692179328587,-0.0010865983850489246,-0.002183772636933209,0.0,-1.8715507884700902,62.68398881609384,-92.75
1772746834.5339837,-6.143825418109345e-07,1.408476589229398,-9.019800588946639,-0.22573241978495742,-1.5475594367906789,9.721126126440293,2.1151733670718688e-06,-0.0010908287317830685,0.0,-0.06038729146511955,63.37500204832367,-92.75
1772746834.555275,-6.143825418109345e-07,1.408476589229398,-9.019800588946639,-0.22280934143830097,-1.5485175570203078,9.720749424566359,-0.0010908287317830685,-2.1151733670718688e-06,-0.001090830782496456,-0.06038729146511955,63.37500204832367,-92.75
1772746834.5977302,-6.143825418109345e-07,1.408476589229398,-9.019800588946639,-0.22280934143830097,-1.5485175570203078,9.720749424566359,-0.0010908287317830685,-2.1151733670718688e-06,-0.001090830782496456,-0.06038729146511955,63.37500204832367,-92.75
1772746834.7027152,-6.143825418109345e-07,1.408476589229398,-9.019800588946639,-0.21956950601248343,-1.5495795031928061,9.720331901691017,0.0010929439051501403,-0.0010887135584159967,-0.001090830782496456,-2.186716392135157,64.05838027862059,-91.5625
1772746834.7416458,-6.143825418109345e-07,1.408476589229398,-9.019800588946639,-0.22205958291816896,-1.546523269559179,9.723565988575107,-0.002183772636933209,0.0010865983850489249,-0.002181661564992912,-0.8109918340328129,63.6860471747551,-91.5625
1772746834.7794085,-6.143825418109345e-07,1.408476589229398,-9.019800588946639,-0.22148519253915816,-1.5375581275387251,9.730495646440497,0.0,0.0,0.001090830782496456,-0.8109918340328129,63.6860471747551,-91.5625
1772746834.8034713,-6.143825418109345e-07,1.408476589229398,-9.019800588946639,-0.21998934548339225,-1.5385166920164193,9.733674958876737,0.0010908287317830685,2.1151733670718688e-06,0.001090830782496456,-3.000063198219372,64.49430397955071,-92.375
1772746834.8247175,-6.143825418109345e-07,1.408476589229398,-9.019800588946639,-0.21998934548339225,-1.5385166920164193,9.733674958876737,0.0010908287317830685,2.1151733670718688e-06,0.001090830782496456,-3.000063198219372,64.49430397955071,-92.375
1772746834.855881,-6.143825418109345e-07,1.408476589229398,-9.019800588946639,-0.2256840868148026,-1.5391675786335253,9.735790755787807,2.1151733670718688e-06,-0.0010908287317830685,0.0,-3.000063198219372,64.49430397955071,-92.375
1772746834.9133995,-6.143825418109345e-07,1.408476589229398,-9.019800588946639,-0.22947387355642734,-1.5396007364063293,9.737198794997125,2.1151733670718688e-06,-0.0010908287317830685,0.0,-1.8734898365800372,63.68398693613828,-91.1875
1772746834.9567337,-6.143825418109345e-07,1.408476589229398,-9.019800588946639,-0.2319959342982868,-1.539888998065441,9.731445605947458,0.0010908287317830685,2.1151733670718688e-06,-0.002181661564992912,-1.8734898365800372,63.68398693613828,-91.1875
1772746835.0388913,-6.143825418109345e-07,1.408476589229398,-9.019800588946639,-0.23476969033415143,-1.5513509683868452,9.741782715648418,4.2303467341437376e-06,-0.002181657463566137,-0.001090830782496456,-1.8728838840456787,63.371487523624396,-92.75
1772746835.0810366,-6.143825418109345e-07,1.408476589229398,-9.019800588946639,-0.23550726854064527,-1.5543988570270988,9.744531489057103,-2.1151733670718688e-06,0.0010908287317830685,0.0,-0.8109918340328129,63.6860471747551,-91.5625
1772746835.137699,-6.143825418109345e-07,1.408476589229398,-9.019800588946639,-0.2326530131791205,-1.556420706537507,9.736325431932814,-0.0010929439051501403,0.0010887135584159967,0.001090830782496456,-0.8109918340328129,63.6860471747551,-91.5625
1772746835.2068014,-6.143825418109345e-07,1.408476589229398,-9.019800588946639,-0.23285185335249664,-1.5497517973815484,9.73057524360893,-0.0010908287317830685,-2.1151733670718688e-06,0.001090830782496456,-2.1832018674358777,62.24588368604003,-92.0
1772746835.2474337,-6.143825418109345e-07,1.408476589229398,-9.019800588946639,-0.23423745578553046,-1.5499895211683266,9.73707304161049,0.0010908287317830685,2.1151733670718688e-06,0.0,-1.1234912465467024,63.685441222220746,-91.25
1772746835.2855327,-6.143825418109345e-07,1.408476589229398,-9.019800588946639,-0.23515955872652114,-1.5501477236928787,9.741397253595368,-0.0010887135584159967,-0.0010929439051501405,0.003272492347489368,-1.1234912465467024,63.685441222220746,-91.25
1772746835.3081424,-6.143825418109345e-07,1.408476589229398,-9.019800588946639,-0.23515955872652114,-1.5501477236928787,9.741397253595368,-0.0010887135584159967,-0.0010929439051501405,0.003272492347489368,-1.1234912465467024,63.685441222220746,-91.25
1772746835.3460162,-6.143825418109345e-07,1.408476589229398,-9.019800588946639,-0.23577320793318568,-1.55025300570573,9.740929856659372,-0.0010950590785172123,0.0021795422901990653,0.002181661564992912,-1.1234912465467024,63.685441222220746,-91.25
1772746835.397313,-6.143825418109345e-07,1.408476589229398,-9.019800588946639,-0.23311905224777202,-1.5447919744808194,9.735959541675363,4.2303467341437376e-06,-0.002181657463566137,0.001090830782496456,-1.4992176846046001,64.05971337419618,-91.1875
1772746835.4147623,-6.143825418109345e-07,1.408476589229398,-9.019800588946639,-0.2310766545794046,-1.5433372226815518,9.73731112011983,-0.001097174251884284,0.0032703710219821338,0.001090830782496456,-1.4992176846046001,64.05971337419618,-91.1875
1772746835.4367893,-6.143825418109345e-07,1.408476589229398,-9.019800588946639,-0.2310766545794046,-1.5433372226815518,9.73731112011983,-0.001097174251884284,0.0032703710219821338,0.001090830782496456,-1.4992176846046001,64.05971337419618,-91.1875
1772746835.4525528,-6.143825418109345e-07,1.408476589229398,-9.019800588946639,-0.22971746174618296,-1.5423691016097814,9.738210580476503,2.1151733670718688e-06,-0.0010908287317830685,0.0,-1.4992176846046001,64.05971337419618,-91.5625
1772746835.485527,-6.143825418109345e-07,1.408476589229398,-9.019800588946639,-0.2254678286801947,-1.5417183415186055,9.738809161296238,0.0010887135584159967,0.0010929439051501405,0.001090830782496456,-1.4992176846046001,64.05971337419618,-91.5625
1772746835.5264158,-6.143825418109345e-07,1.408476589229398,-9.019800588946639,-0.22263974534629136,-1.5412852679473947,9.739207510145187,-0.0010887135584159967,-0.0010929439051501405,0.001090830782496456,-0.8103858814984545,63.37354776224121,-91.5625
1772746835.5446084,-6.143825418109345e-07,1.408476589229398,-9.019800588946639,-0.22074471481427219,-1.5476872731608187,9.739472606854314,-0.0010887135584159967,-0.0010929439051501405,-0.002181661564992912,-0.8103858814984545,63.37354776224121,-91.5625
1772746835.5715933,-6.143825418109345e-07,1.408476589229398,-9.019800588946639,-0.22074471481427219,-1.5476872731608187,9.739472606854314,-0.0010887135584159967,-0.0010929439051501405,-0.002181661564992912,-0.8103858814984545,63.37354776224121,-91.5625
1772746835.6169436,-6.143825418109345e-07,1.408476589229398,-9.019800588946639,-0.2228286985827496,-1.5519542224478018,9.739649025752913,-2.1151733670718688e-06,0.0010908287317830685,0.001090830782496456,-0.8103858814984545,63.37354776224121,-91.5625
1772746835.64575,-6.143825418109345e-07,1.408476589229398,-9.019800588946639,-0.22088992007999012,-1.5447520269448347,9.739766430559202,0.0,0.0,0.0,-1.8734898365800372,63.68398693613828,-90.0
1772746835.68187,-6.143825418109345e-07,1.408476589229398,-9.019800588946639,-0.2195996846439786,-1.5399590462914055,9.736499450438972,0.001097174251884284,-0.0032703710219821338,0.0,-1.8734898365800372,63.68398693613828,-90.0
1772746835.698318,-6.143825418109345e-07,1.408476589229398,-9.019800588946639,-0.2195996846439786,-1.5399590462914055,9.736499450438972,0.001097174251884284,-0.0032703710219821338,0.0,-1.8734898365800372,63.68398693613828,-90.0
1772746835.723676,-6.143825418109345e-07,1.408476589229398,-9.019800588946639,-0.2187345610416535,-1.5401144766263084,9.744360646785475,0.0010929439051501403,-0.0010887135584159967,0.0,-2.186716392135157,64.05838027862059,-92.0
1772746835.7503278,-6.143825418109345e-07,1.408476589229398,-9.019800588946639,-0.2187345610416535,-1.5401144766263084,9.744360646785475,0.0010929439051501403,-0.0010887135584159967,0.0,-2.186716392135157,64.05838027862059,-92.0
1772746835.8095224,-6.143825418109345e-07,1.408476589229398,-9.019800588946639,-0.2215039363670281,-1.5402244001104493,9.742901961724117,-0.0010887135584159967,-0.0010929439051501405,0.0,-2.186716392135157,64.05838027862059,-92.0
1772746835.825411,-6.143825418109345e-07,1.408476589229398,-9.019800588946639,-0.22334692471011547,-1.5402975529612193,9.748621446525002,0.0,0.0,0.003272492347489368,-0.8109918340328129,63.6860471747551,-92.0
1772746835.8417175,-6.143825418109345e-07,1.408476589229398,-9.019800588946639,-0.22457341286491136,-1.5403462353662358,9.75577281147648,-2.1151733670718688e-06,0.0010908287317830685,0.002181661564992912,-0.8109918340328129,63.6860471747551,-92.0
1772746835.858802,-6.143825418109345e-07,1.408476589229398,-9.019800588946639,-0.22457341286491136,-1.5403462353662358,9.75577281147648,-2.1151733670718688e-06,0.0010908287317830685,0.002181661564992912,-0.8109918340328129,63.6860471747551,-92.0
1772746835.9128854,-6.143825418109345e-07,1.408476589229398,-9.019800588946639,-0.22204452161249957,-1.5403721466304225,9.760531964965706,2.1151733670718688e-06,-0.0010908287317830685,0.001090830782496456,-0.8109918340328129,63.6860471747551,-92.0
1772746835.942461,-6.143825418109345e-07,1.408476589229398,-9.019800588946639,-0.2203615727335858,-1.540389390287291,9.75700890503492,0.0010865983850489246,0.002183772636933209,0.001090830782496456,-1.4971574459877812,62.997215371648956,-91.5625
1772746835.9609532,-6.143825418109345e-07,1.408476589229398,-9.019800588946639,-0.21924158905443947,-1.5404008657483128,9.754664348006141,0.002179542290199065,0.0010950590785172123,0.0,-1.4971574459877812,62.997215371648956,-91.5625
1772746835.9954717,-6.143825418109345e-07,1.408476589229398,-9.019800588946639,-0.21849625242700507,-1.5404085025394334,9.753104071493906,6.345520101215608e-06,-0.003272486195349206,0.002181661564992912,-1.4984905415633698,63.684714079179514,-92.75
1772746836.0125074,-6.143825418109345e-07,1.408476589229398,-9.019800588946639,-0.21849625242700507,-1.5404085025394334,9.753104071493906,6.345520101215608e-06,-0.003272486195349206,0.002181661564992912,-1.4984905415633698,63.684714079179514,-92.75
1772746836.0299654,-6.143825418109345e-07,1.408476589229398,-9.019800588946639,-0.2179937528948695,-1.5437586901572735,9.752065724904444,-0.0010887135584159967,-0.0010929439051501405,0.004363323129985824,-1.4984905415633698,63.684714079179514,-92.75
1772746836.0505412,-6.143825418109345e-07,1.408476589229398,-9.019800588946639,-0.2210044504881789,-1.5459946889254321,9.74468449343361,0.0010887135584159967,0.0010929439051501405,0.0,-1.4984905415633698,63.684714079179514,-92.75
1772746836.0690782,-6.143825418109345e-07,1.408476589229398,-9.019800588946639,-0.2210044504881789,-1.5459946889254321,9.74468449343361,0.0010887135584159967,0.0010929439051501405,0.0,-1.4984905415633698,63.684714079179514,-92.75
1772746836.122393,-6.143825418109345e-07,1.408476589229398,-9.019800588946639,-0.22634665519095495,-1.5508343128790907,9.739772366343528,2.1151733670718688e-06,-0.0010908287317830685,-0.001090830782496456,-2.186716392135157,64.05838027862059,-92.75
1772746836.1471148,-6.143825418109345e-07,1.408476589229398,-9.019800588946639,-0.22655672732565768,-1.5540485422255748,9.736503400637133,-0.0010887135584159967,-0.0010929439051501405,0.0,-2.186716392135157,64.05838027862059,-92.75
1772746836.2099574,-6.143825418109345e-07,1.408476589229398,-9.019800588946639,-0.22671598698224377,-1.5461522596943913,9.734327940476268,-2.1151733670718688e-06,0.0010908287317830685,-0.001090830782496456,-1.8734898365800372,63.68398693613828,-91.25
1772746836.2260976,-6.143825418109345e-07,1.408476589229398,-9.019800588946639,-0.22682197250465486,-1.5408973718771444,9.732880196040693,-0.0010887135584159967,-0.0010929439051501405,-0.001090830782496456,-1.8734898365800372,63.68398693613828,-91.25
1772746836.2657802,-6.143825418109345e-07,1.408476589229398,-9.019800588946639,-0.22682197250465486,-1.5408973718771444,9.732880196040693,-0.0010887135584159967,-0.0010929439051501405,-0.001090830782496456,-1.8734898365800372,63.68398693613828,-91.25
1772746836.3230355,-6.143825418109345e-07,1.408476589229398,-9.019800588946639,-0.23023761010454163,-1.5374067890682432,9.731916738291183,-4.2303467341437376e-06,0.002181657463566137,-0.001090830782496456,-1.8715507884700902,62.68398881609384,-91.1875
1772746836.3805268,-6.143825418109345e-07,1.408476589229398,-9.019800588946639,-0.23249770610702697,-1.5417740560386004,9.727930456214093,2.1151733670718688e-06,-0.0010908287317830685,0.0,-1.8715507884700902,62.68398881609384,-91.1875
1772746836.408418,-6.143825418109345e-07,1.408476589229398,-9.019800588946639,-0.23400177474975437,-1.5446804234218046,9.721932518314159,-0.002179542290199065,-0.0010950590785172123,-0.003272492347489368,-1.4971574459877812,62.997215371648956,-91.5625
1772746836.4367595,-6.143825418109345e-07,1.408476589229398,-9.019800588946639,-0.23165761021128378,-1.5466080921165424,9.721286069350429,6.345520101215608e-06,-0.003272486195349206,0.0,-1.4971574459877812,62.997215371648956,-91.5625
1772746836.4517462,-6.143825418109345e-07,1.408476589229398,-9.019800588946639,-0.23165761021128378,-1.5466080921165424,9.721286069350429,6.345520101215608e-06,-0.003272486195349206,0.0,-1.4971574459877812,62.997215371648956,-91.5625
1772746836.476853,-6.143825418109345e-07,1.408476589229398,-9.019800588946639,-0.2334427003156233,-1.5478974204319538,9.727546088201013,0.002183772636933209,-0.0010865983850489249,-0.001090830782496456,-1.4971574459877812,62.997215371648956,-91.5625
1772746836.4945781,-6.143825418109345e-07,1.408476589229398,-9.019800588946639,-0.2334427003156233,-1.5478974204319538,9.727546088201013,0.002183772636933209,-0.0010865983850489249,-0.001090830782496456,-1.4971574459877812,62.997215371648956,-91.5625
1772746836.5156813,-6.143825418109345e-07,1.408476589229398,-9.019800588946639,-0.23463065783929826,-1.548755454023119,9.731712060817085,-0.0010908287317830685,-2.1151733670718688e-06,-0.001090830782496456,-2.186716392135157,64.05838027862059,-91.5625
1772746836.5365145,-6.143825418109345e-07,1.408476589229398,-9.019800588946639,-0.23541474396841525,-1.5526715712118344,9.734484469056117,-0.0010908287317830685,-2.1151733670718688e-06,0.0,-2.186716392135157,64.05838027862059,-91.5625
1772746836.5666819,-6.143825418109345e-07,1.408476589229398,-9.019800588946639,-0.23594303086106025,-1.551932598036371,9.736329475769363,-4.2303467341437376e-06,0.002181657463566137,0.0,-2.186716392135157,64.05838027862059,-91.5625
1772746836.6172314,-6.143825418109345e-07,1.408476589229398,-9.019800588946639,-0.23629459988676424,-1.5514408196429712,9.737557307126954,4.2303467341437376e-06,-0.002181657463566137,0.0,-2.1853832965595683,63.37088157109003,-92.0
1772746836.6309536,-6.143825418109345e-07,1.408476589229398,-9.019800588946639,-0.23629459988676424,-1.5514408196429712,9.737557307126954,4.2303467341437376e-06,-0.002181657463566137,0.0,-2.1853832965595683,63.37088157109003,-92.0
1772746836.6638024,-6.143825418109345e-07,1.408476589229398,-9.019800588946639,-0.23652856514608692,-1.5511135466156885,9.738374415179655,0.0010950590785172123,-0.0021795422901990653,0.001090830782496456,-2.1853832965595683,63.37088157109003,-92.0
1772746836.7379892,-6.143825418109345e-07,1.408476589229398,-9.019800588946639,-0.23334564732647853,-1.5475441583207195,9.735573079753713,0.0,0.0,0.001090830782496456,-1.122885294012344,63.37294180970685,-92.375
1772746836.7617724,-6.143825418109345e-07,1.408476589229398,-9.019800588946639,-0.23122745107305093,-1.5451687702830972,9.737053934028035,0.0010865983850489246,0.002183772636933209,0.001090830782496456,-1.122885294012344,63.37294180970685,-92.375
1772746836.778046,-6.143825418109345e-07,1.408476589229398,-9.019800588946639,-0.23122745107305093,-1.5451687702830972,9.737053934028035,0.0010865983850489246,0.002183772636933209,0.001090830782496456,-1.122885294012344,63.37294180970685,-92.375
1772746836.7992482,-6.143825418109345e-07,1.408476589229398,-9.019800588946639,-0.22981781512819735,-1.5435879760788827,9.731349202590732,-2.1151733670718688e-06,0.0010908287317830685,0.001090830782496456,-1.122885294012344,63.37294180970685,-92.375
1772746836.846396,-0.0006363929404953166,1.4154349338422776,-9.026788170458836,-0.2255410990674382,-1.5391843834434145,9.74093321437451,-0.016383582710416743,0.010876559717324607,0.008726646259971648,-1.8742169796212675,64.05898623115495,-91.5625
1772746836.8749769,-0.0006363929404953166,1.4154349338422776,-9.026788170458836,-0.2255410990674382,-1.5391843834434145,9.74093321437451,-0.016383582710416743,0.010876559717324607,0.008726646259971648,-1.8742169796212675,64.05898623115495,-91.5625
1772746836.914231,-0.021558355741238627,1.4137836210389108,-9.02704470003536,-0.19620784999122196,-1.5643619736552814,9.773840774759652,2.1151733670718688e-06,-0.0010908287317830685,-0.017453292519943295,-2.6207010449553234,62.24503535249193,-91.5625
1772746836.935592,-0.021558355741238627,1.4137836210389108,-9.02704470003536,-0.1730097169559668,-1.5830568185448695,9.765865769283645,0.005445682965447055,0.004373890793967634,-0.003272492347489368,-2.6207010449553234,62.24503535249193,-91.5625
1772746836.9643471,-0.021558355741238627,1.4137836210389108,-9.02704470003536,-0.1730097169559668,-1.5830568185448695,9.765865769283645,0.005445682965447055,0.004373890793967634,-0.003272492347489368,-2.6207010449553234,62.24503535249193,-91.5625
1772746836.9936283,-0.021558355741238627,1.4137836210389108,-9.02704470003536,-0.15766891354913476,-1.5453214477039185,9.76055849222601,-0.0032809468888174934,0.004356969407031059,0.003272492347489368,-2.6207010449553234,62.24503535249193,-91.5625
1772746837.0190337,-0.021729169071969444,1.4137538777072576,-9.040992533343273,-0.17087551818049693,-1.5202543842687133,9.750336335215685,-0.011999116049613753,-2.3266907037790556e-05,-0.002181661564992912,-1.1242183895879327,64.06044051723741,-91.1875
1772746837.037786,-0.021729169071969444,1.4137538777072576,-9.040992533343273,-0.17087551818049693,-1.5202543842687133,9.750336335215685,-0.011999116049613753,-2.3266907037790556e-05,-0.002181661564992912,-1.1242183895879327,64.06044051723741,-91.1875
1772746837.0826597,-0.05727182374771127,1.425026180193048,-9.0065827200989,-0.2097414093368749,-1.6262280876588013,9.71672147749992,0.03053262862309056,0.005513368513193354,-0.014180800172453928,-2.622155331037784,62.99503394252527,-91.1875
1772746837.114785,-0.05727182374771127,1.425026180193048,-9.0065827200989,-0.2097414093368749,-1.6262280876588013,9.71672147749992,0.03053262862309056,0.005513368513193354,-0.014180800172453928,-2.622155331037784,62.99503394252527,-91.1875
1772746837.1308193,-0.05029763094106847,1.4255754171685409,-9.006496760178448,-0.18199669052313433,-1.6342633425804105,9.73454373843629,-0.003268255848615062,-0.0021880029836673525,0.0,-2.622155331037784,62.99503394252527,-91.1875
1772746837.158075,-0.015253964255746304,1.428350509644281,-8.992117407670625,-0.16353289008140653,-1.6396107149710626,9.746404254001744,0.012013922263183256,-0.00761253421544369,0.02399827721492203,-1.8734898365800372,63.68398693613828,-90.75
1772746837.1789074,-0.02222830449659609,1.4278021685170836,-8.992203707314705,-0.21480244009610502,-1.643292571881117,9.754297294619914,-6.345520101215608e-06,0.003272486195349206,-0.015271630954950384,-1.8734898365800372,63.68398693613828,-90.75
1772746837.2003648,-0.036435362612920956,1.4266580467981123,-9.013298806027805,-0.24889580758235247,-1.6591232282003539,9.742824466443668,-0.026165083349224145,-0.007686565283291205,-0.009817477042468103,-1.8734898365800372,63.68398693613828,-90.75
1772746837.2148707,-0.036435362612920956,1.4266580467981123,-9.013298806027805,-0.24889580758235247,-1.6591232282003539,9.742824466443668,-0.026165083349224145,-0.007686565283291205,-0.009817477042468103,-1.8734898365800372,63.68398693613828,-90.75
1772746837.232969,-0.03660760593487951,1.426626389808332,-9.027246937911729,-0.21471128434686054,-1.6728931909063742,9.735189427452266,-0.006544972390698412,-1.2691040202431215e-05,-0.001090830782496456,-2.1853832965595683,63.37088157109003,-91.1875
1772746837.270045,-0.01623621401432023,1.4352496057767603,-9.027002891182864,-0.19196186599978618,-1.6820569472666682,9.730108394292461,0.00871816916079626,0.004380236314068849,0.019634954084936207,-2.1853832965595683,63.37088157109003,-91.1875
1772746837.318346,-0.02376086014740648,1.4416709779113794,-9.027104700153966,-0.1468137284375444,-1.6379203664859048,9.756833028849345,-0.004378121140701777,0.007627340429013193,-0.018544123302439753,-1.4978845890290113,63.37221466666562,-91.25
1772746837.4050515,0.0828618717331381,1.5062889954195782,-9.068168516124542,-0.20039578269406602,-1.6087101233275602,9.774617974613221,-0.03055378035676128,0.00539491880463733,0.055632369907319255,-1.4978845890290113,63.37221466666562,-91.25
1772746837.4282641,0.0828618717331381,1.5062889954195782,-9.068168516124542,-0.20039578269406602,-1.6087101233275602,9.774617974613221,-0.03055378035676128,0.00539491880463733,0.055632369907319255,-1.4978845890290113,63.37221466666562,-91.25
1772746837.4510899,0.12350809536478029,1.523543001552056,-9.074605260398299,-0.27958581602130655,-1.565939617197809,9.823249886128734,-0.018539858093578023,-0.002217615410806359,0.014180800172453928,-2.3103830615651244,63.37063919007629,-92.5
1772746837.5042002,0.1564176126928709,1.5333045399369114,-9.179309417181344,-0.3321691446043451,-1.5976882206821634,9.85561387998826,-0.05671674853261835,-0.003382475210436943,0.020725784867432664,-2.3103830615651244,63.37063919007629,-92.5
1772746837.5378277,1.3593622494320068,1.7827522374267015,-9.048928166230395,-0.41414991022410935,-1.5386248402535398,9.923983320274745,0.06969458912556036,0.06122178007534444,0.4625122517784973,-1.4971574459877812,62.997215371648956,-91.5625
1772746837.5554478,2.3145743929666853,2.0344925643934437,-9.072726219132582,-0.2981068176073449,-1.4989880174002654,10.170189121487875,-0.07318705335108504,0.05221806250999348,0.6544984694978736,-1.4971574459877812,62.997215371648956,-91.5625
1772746837.5925899,3.561902115674211,2.1545890884875734,-9.056701731151948,-0.15090664793176284,-1.3319795139968897,10.334036331896204,-0.004172949324095805,-0.09818304655394446,0.7766715171374766,-1.4971574459877812,62.997215371648956,-91.5625
1772746837.6445205,3.561902115674211,2.1545890884875734,-9.056701731151948,-0.15090664793176284,-1.3319795139968897,10.334036331896204,-0.004172949324095805,-0.09818304655394446,0.7766715171374766,-1.4971574459877812,62.997215371648956,-91.5625
1772746837.684773,7.020156631822498,1.7804347266999574,-8.983914869851578,0.09063350035465097,-1.0867540915438976,10.39624325622721,-0.07133264703378904,-0.34156899449032724,1.1224648751888533,0.377839029095556,63.00085108685511,-91.5625
1772746837.7026575,10.368238368511827,1.3355768790484632,-9.209700423989137,0.25137577085901053,-0.92355931224889,10.323907471423759,-0.1704373084501508,-0.42466445888224397,1.5991579271398044,0.377839029095556,63.00085108685511,-91.5625
1772746837.753175,17.90424534104441,1.2042246342771543,-9.486936551718053,0.40501727381871855,-0.7312365655112734,10.185450798583101,-0.164057319582084,-0.33956712676296213,1.9034997154563156,-0.05263109902533115,59.375009568145884,-90.75
1772746837.8354359,28.649890419823038,1.473037737481768,-8.706715014041894,0.43185695912853567,-0.6821200166839589,9.948421684893885,0.19483167869464674,-0.34214372092054474,2.4740042147019623,-0.04548085911990122,55.68751650048199,-92.0
1772746837.8748736,34.18239184974334,1.278241288254831,-8.131365223113608,0.3882096743113444,-0.691251146072031,9.885392526488747,0.18641809449870886,-0.5036032946113754,2.442370122009565,-0.04548085911990122,55.68751650048199,-92.0
1772746837.9229164,34.18239184974334,1.278241288254831,-8.131365223113608,0.3882096743113444,-0.691251146072031,9.885392526488747,0.18641809449870886,-0.5036032946113754,2.442370122009565,-0.04548085911990122,55.68751650048199,-92.0
1772746837.952895,42.610209797381394,0.3838895529249558,-7.706495488893266,0.22546245841183818,-0.7511089506782688,9.699607522237228,0.07217085641277551,-0.6532689240691983,2.4794583686144445,-1.470737915489752,49.37224098604337,-92.75
1772746837.981619,46.57854239980379,-0.08735186092249347,-7.63932161207634,0.10393125454241449,-0.8712521263661581,9.569279453847683,0.03826209809934922,-0.6053380302451226,2.3136520896749833,-1.470737915489752,49.37224098604337,-92.75
1772746838.0095205,50.43764188158198,-0.3169985353032151,-7.688657766943709,0.009686146950248655,-0.9579222238666893,9.35877844702354,-0.021050881876781353,-0.3949223043728123,2.272200519940118,-6.27813886691504,46.73791425189758,-91.25
1772746838.029943,54.115730975717426,-0.32358098856369494,-7.706357989596883,-0.05292265171243242,-1.0724669977020533,9.218692378432392,0.01685526637127377,-0.2541313669049489,2.1522091338655076,-6.27813886691504,46.73791425189758,-91.25
1772746838.06738,57.62936577745759,-0.11199539198789597,-7.71031320692124,-0.14787628656365764,-1.2692228415327529,9.162262893429418,-0.005229935282005724,-0.11563842143584062,2.0922134408282025,-6.27813886691504,46.73791425189758,-91.25
1772746838.1007195,62.121604155926725,0.33624763487989134,-7.760436298501174,-0.21773762169526176,-1.410209946616336,9.144780371762504,-0.04788012966326606,-0.06008864787621993,1.9918570088385286,-13.273884039485656,44.536845027530724,-88.0625
1772746838.11882,64.27075803607657,0.5741561728196476,-7.794290469546499,-0.27760998149772886,-1.5040612354504377,9.133145948885737,-0.049006916342289354,-0.04154667460927484,1.9296796542362307,-13.273884039485656,44.536845027530724,-88.0625
1772746838.1481493,67.31612018170817,0.927050878365364,-7.932163218540226,-0.3543153910587638,-1.5331385152532322,9.125403370426268,-0.11226229174550491,-0.04821432705526341,1.8020524526841453,-13.273884039485656,44.536845027530724,-88.0625
1772746838.187001,67.31612018170817,0.927050878365364,-7.932163218540226,-0.3543153910587638,-1.5331385152532322,9.125403370426268,-0.11226229174550491,-0.04821432705526341,1.8020524526841453,-13.273884039485656,44.536845027530724,-88.0625
1772746838.212948,71.97044351894002,1.435750575955112,-8.133892282834072,-0.4087070896847222,-1.5524956064800275,9.093489877293203,-0.06966709187178842,-0.07540255358852432,1.648245312352145,-16.963558536273244,45.654692672675296,-84.75
1772746838.232206,73.65129291563007,1.61816946825379,-8.161394135439895,-0.46487749504915615,-1.615593033733655,9.072251804110227,-0.05226036597733492,-0.051370478715423676,1.4889840181076623,-16.963558536273244,45.654692672675296,-84.75
1772746838.259874,75.9607838153875,1.7948276402450158,-8.108871309824734,-0.5924853100029422,-1.7045902735661194,9.292275923164135,0.018783103030791285,-0.12322768874424653,1.3395402009056478,-16.963558536273244,45.654692672675296,-84.75
1772746838.3090205,79.92305766236028,1.7988347896274155,-7.723772772011072,-0.6774068853819928,-1.763816942510315,9.47884085705189,0.07996046446542722,-0.17001487450236244,1.150826475533761,-19.594128364706012,48.52459726651447,-81.5625
1772746838.335124,79.92305766236028,1.7988347896274155,-7.723772772011072,-0.6774068853819928,-1.763816942510315,9.47884085705189,0.07996046446542722,-0.17001487450236244,1.150826475533761,-19.594128364706012,48.52459726651447,-81.5625
1772746838.3497264,81.53899432878698,1.8089284918082307,-7.48626160975914,-0.7372404052491202,-1.8166185370946006,9.602997736487325,0.1300010998585887,-0.09901370896157768,0.9097528726020443,-19.594128364706012,48.52459726651447,-81.5625
1772746838.37922,82.44928348233273,1.8564234546956266,-7.277298203803011,-0.8037808696905446,-1.871879931630201,9.618720518682,0.17462354954007503,-0.04656720772794045,0.7821256710499589,-19.594128364706012,48.52459726651447,-81.5625
1772746838.3925292,83.7008068260933,2.236923979685506,-6.8372554485641635,-0.8647883325639115,-1.9086882040460864,9.629183854597573,0.24748275101926395,0.0702931831884417,0.5323254218582705,-22.09921366610574,51.144744711356275,-79.5625
1772746838.4162526,84.29739443116932,2.549950018448962,-6.433112711341763,-0.9054075766057241,-1.9231483819075397,9.639492199473585,0.22769554136473955,0.14879477875621536,0.3687008044838021,-22.09921366610574,51.144744711356275,-79.5625
1772746838.4542544,84.64299523479804,2.7731668858401592,-6.202283784227664,-0.8957663104817644,-1.869143116131193,9.750050750763714,0.18293560541439352,0.16725214508847755,0.33161255787892263,-22.09921366610574,51.144744711356275,-79.5625
1772746838.4930937,85.45703988140346,3.2592151502023157,-5.7845915016081735,-0.8192326684351221,-1.7661648936790144,9.826971343334675,0.171002059739159,0.13341318749616463,0.3010692959690218,-24.285376458127377,50.45300433608521,-80.0
1772746838.5205605,85.45703988140346,3.2592151502023157,-5.7845915016081735,-0.8192326684351221,-1.7661648936790144,9.826971343334675,0.171002059739159,0.13341318749616463,0.3010692959690218,-24.285376458127377,50.45300433608521,-80.0
1772746838.5507143,86.02766158659811,3.608835124606944,-5.373839498174633,-0.7582910136640416,-1.6842341563069747,9.894886696967925,0.19608477505006836,0.13673432267895652,0.2716168648416175,-24.285376458127377,50.45300433608521,-80.0
1772746838.5829983,86.47375995035844,3.853290212081049,-5.178922747564022,-0.6441167586361652,-1.6429478881710793,9.940083606146644,0.23423205306196968,0.15317078472355003,0.2083486794568231,-23.973604188654722,50.82860958363623,-81.5625
1772746838.5968542,86.47375995035844,3.853290212081049,-5.178922747564022,-0.6441167586361652,-1.6429478881710793,9.940083606146644,0.23423205306196968,0.15317078472355003,0.2083486794568231,-23.973604188654722,50.82860958363623,-81.5625
1772746838.626274,86.67146411510949,4.010983623452862,-4.993566954031082,-0.5314102573777421,-1.578604828661366,9.943400750663969,0.24509803691245893,0.17500851109288212,0.2007128639793479,-23.973604188654722,50.82860958363623,-81.5625
1772746838.6484032,87.0554935673327,4.215126206021842,-4.425579137398833,-0.4597958495507683,-1.5123759897186493,9.922192491334082,0.24860319217818602,0.055023696116845815,0.17671458676442586,-24.28610360116861,50.82800363110187,-82.5
1772746838.6768384,87.0554935673327,4.215126206021842,-4.425579137398833,-0.4597958495507683,-1.5123759897186493,9.922192491334082,0.24860319217818602,0.055023696116845815,0.17671458676442586,-24.28610360116861,50.82800363110187,-82.5
1772746838.7112138,87.25077117234207,4.061149446061596,-4.126877766432753,-0.4121632064574046,-1.4549210155522456,9.891353073125224,0.18333748835413718,-0.04000531395030546,0.06981317007977318,-24.28610360116861,50.82800363110187,-82.5
1772746838.7350874,87.14862920356464,3.904409179576011,-4.101361522148954,-0.3805290778955949,-1.383234317872038,9.803927550659715,0.008777394015074273,-0.02616296817585707,-0.07526732399225546,-23.594969178431903,48.954340251594125,-83.25
1772746838.7717006,86.99965425057054,3.8736257618880514,-4.140582599884045,-0.3395879035130745,-1.2418257516411162,9.742401730358676,-0.031581153887532194,-0.027332058322221797,-0.14289883250703572,-23.594969178431903,48.954340251594125,-83.25
1772746838.8128014,86.56608470599633,3.6959917596772436,-4.268842090367241,-0.3124003862971942,-1.1176139816837023,9.701456984236781,-0.03476903314819852,-0.07097155311364575,-0.16035212502697901,-24.283195029003686,49.3280064510352,-83.1875
1772746838.871051,86.40005907259025,3.604475791841261,-4.305867199674397,-0.31772313522509904,-1.0349978406411646,9.731075612099872,-0.01845948150562929,-0.04366910721856296,-0.14944381720201447,-24.283195029003686,49.3280064510352,-83.1875
1772746838.9132106,85.98173178972314,3.396424481312161,-4.153393962344593,-0.32126536517761833,-0.9800177216601211,9.750786478081007,0.11019062329702649,-0.008512997344190289,-0.09053895494720585,-26.970689976623138,49.32279525923972,-83.1875
1772746838.9440525,85.9136084962997,3.3651080771559276,-3.990811944607415,-0.31023577163455274,-0.9467482267349313,9.763903839206652,0.15481730332524699,0.04175184642588081,-0.009817477042468103,-26.970689976623138,49.32279525923972,-83.1875
1772746838.9718888,86.23111288482791,3.5361060766179433,-4.09117950829909,-0.30283083701493907,-0.9580588036934075,9.782668631627201,-0.13542140074363088,0.08154987338621324,0.18980455615438332,-27.657461541112465,48.946462868647465,-86.0
1772746839.0034902,86.23111288482791,3.5361060766179433,-4.09117950829909,-0.30283083701493907,-0.9580588036934075,9.782668631627201,-0.13542140074363088,0.08154987338621324,0.18980455615438332,-27.657461541112465,48.946462868647465,-86.0
1772746839.0438263,86.43975917201688,3.7868852402578193,-4.38504336501114,-0.2979029357441258,-0.9655858663118502,9.795156391366612,-0.08744820345221366,0.09364205706397816,0.09817477042468103,-27.657461541112465,48.946462868647465,-86.0
1772746839.079547,86.59349736445357,3.9492912510003495,-4.617846140690322,-0.3080687574966323,-0.937169933545179,9.800121744268454,-0.08630872573298794,0.06855511140633463,0.06326818538479445,-26.158191504087025,49.32437073582905,-86.0
1772746839.1171303,86.74689036534502,3.951265530405745,-4.761014437578186,-0.3148339983132557,-0.918259447715727,9.70641789164574,-0.09490844518522817,0.0030884661124139534,0.10144726277217041,-26.158191504087025,49.32437073582905,-86.0
1772746839.173001,86.74962515095189,3.8932414512878677,-4.892971793591499,-0.3393484460231724,-0.935819597403319,9.567121455197599,0.004390812180904208,-0.014172312819711604,-0.018544123302439753,-26.59787211073016,50.44852028733095,-85.1875
1772746839.2382798,86.59704969500501,3.9736082335459897,-5.317174087498521,-0.3656848807207049,-0.9542153506956036,9.474421232784511,-0.17898686446720732,0.046558747034472166,-0.08944812416470939,-26.59787211073016,50.44852028733095,-85.1875
1772746839.2865422,86.52985963874369,3.701079187570035,-6.21781859059017,-0.38315959315439146,-0.9932183623668547,9.519773844932157,-0.16026933181079525,-0.04285325102449923,-0.026179938779914945,-27.28670391383631,51.13468589928592,-86.5
1772746839.3292222,86.67590683475468,3.5820789189583713,-6.49676653625738,-0.3277375250522468,-1.0959821289203464,9.640273517792167,-0.1547940364182092,-0.05375096247549456,0.07744898555724837,-27.28670391383631,51.13468589928592,-86.5
1772746839.4192047,87.09884079080085,3.2906238100239737,-7.004888450353883,-0.2662016591162102,-1.2655941670460604,9.69917870781592,0.005604320967977445,-0.07743826408976251,0.07417649320975901,-27.29167272461805,53.697181081899814,-86.375
1772746839.4606645,87.24324075006733,3.1637502164557993,-7.081540260985662,-0.24974116814222538,-1.3608728197637086,9.712833886055208,-0.04018721885987364,-0.08952621742079328,0.06326818538479445,-27.977717146066144,52.94584939629089,-85.5625
1772746839.5127475,87.35352828884257,3.0507002288927576,-7.114983546712113,-0.23891662192544352,-1.3573775904418537,9.725266366342437,-0.027183996186526765,-0.04477685733728261,0.03490658503988659,-27.977717146066144,52.94584939629089,-85.5625
1772746839.5474308,87.41018485443233,2.9141870127128144,-7.169524525364638,-0.24154076095117702,-1.4621143867670874,9.730194931386364,-0.01622282953451928,-0.0720264238981886,0.022907446432425576,-29.481350041338967,54.817937299209305,-84.5
1772746839.5732338,87.41221177478405,2.799933570161852,-7.181289905434291,-0.24344276814005641,-1.4515330246870615,9.72678461295278,-0.007637916295848552,0.0010760225182135654,-0.03381575425739013,-29.481350041338967,54.817937299209305,-84.5
1772746839.6000662,87.4174262495131,2.7902462284763825,-7.191119532074975,-0.1910895509909097,-1.494564046383696,9.724515084130983,6.345520101215608e-06,-0.003272486195349206,0.014180800172453928,-29.481350041338967,54.817937299209305,-84.5
1772746839.6420836,87.4174262495131,2.7902462284763825,-7.191119532074975,-0.1910895509909097,-1.494564046383696,9.724515084130983,6.345520101215608e-06,-0.003272486195349206,0.014180800172453928,-29.481350041338967,54.817937299209305,-84.5
1772746839.6921287,87.44489652861407,2.5731220392823673,-7.447758940825918,-0.18324833320786138,-1.5379031252117288,9.713095081713233,-0.0010865983850489246,-0.002183772636933209,0.004363323129985824,-28.355019060713374,54.13262002080244,-85.25
1772746839.7188275,87.44489652861407,2.5731220392823673,-7.447758940825918,-0.18324833320786138,-1.5379031252117288,9.713095081713233,-0.0010865983850489246,-0.002183772636933209,0.004363323129985824,-28.355019060713374,54.13262002080244,-85.25
1772746839.7611563,87.44282167877022,2.491296847759293,-7.5548505653698115,-0.20453954099289232,-1.558836375623476,9.715404854013148,0.0021985788505027117,-0.008722399507530405,-0.00545415391248228,-29.480622898297735,54.44293800419264,-84.5
1772746839.7921321,87.45924981334453,2.3718838716269337,-7.62085092867806,-0.2153634965167975,-1.5727607336002312,9.720287093384213,2.538208040486243e-05,-0.013089944781396823,0.011999138607461015,-29.480622898297735,54.44293800419264,-84.5
1772746839.8111384,87.45924981334453,2.3718838716269337,-7.62085092867806,-0.2153634965167975,-1.5727607336002312,9.720287093384213,2.538208040486243e-05,-0.013089944781396823,0.011999138607461015,-29.480622898297735,54.44293800419264,-84.5
1772746839.8336768,87.4922182440229,2.303147062952821,-7.687713649149481,-0.19248671456866287,-1.5685884396210563,9.72353616914747,-0.0010739073448464934,-0.00872874502763162,0.020725784867432664,-28.35562501324773,54.44511943331633,-85.5625
1772746839.8587906,87.4922182440229,2.303147062952821,-7.687713649149481,-0.19248671456866287,-1.5685884396210563,9.72353616914747,-0.0010739073448464934,-0.00872874502763162,0.020725784867432664,-28.35562501324773,54.44511943331633,-85.5625
1772746839.8922698,87.50382834936816,2.247485165915204,-7.780673210669334,-0.177262471732578,-1.5658118245854933,9.722353281066043,0.008728745027631619,-0.0010739073448464936,0.003272492347489368,-28.35562501324773,54.44511943331633,-85.5625
1772746839.91302,87.50557945959665,2.2121312363269126,-7.814390327180098,-0.19052070079157105,-1.577389844298516,9.72156608226158,0.015286408458532463,-0.0076061886953424735,0.001090830782496456,-29.857076479396863,55.192209451184745,-86.0
1772746839.9271135,87.50557945959665,2.2121312363269126,-7.814390327180098,-0.19052070079157105,-1.577389844298516,9.72156608226158,0.015286408458532463,-0.0076061886953424735,0.001090830782496456,-29.857076479396863,55.192209451184745,-86.0
1772746839.9452097,87.47664564462494,2.200233632946446,-7.814675566209794,-0.1993439041262081,-1.5850948870825778,9.721042210250797,0.010912517664564829,-0.0021605057298954185,-0.02399827721492203,-29.857076479396863,55.192209451184745,-86.0
1772746839.987071,87.44021736945732,2.147719155683819,-7.83389634058203,-0.1918936027019403,-1.5600906128863465,9.73741913781625,-0.0032767165420833494,0.0021753119434649213,-0.025089107997418487,-29.857076479396863,55.192209451184745,-86.0
1772746840.0064425,87.43865479087869,2.065646440294456,-7.950814919247438,-0.1869355103294102,-1.5434505477247988,9.691450901144362,-0.00982168893278176,0.00216262090326249,0.011999138607461015,-29.857924812944965,55.62970862870419,-84.375
1772746840.0367856,87.43865479087869,2.065646440294456,-7.950814919247438,-0.1869355103294102,-1.5434505477247988,9.691450901144362,-0.00982168893278176,0.00216262090326249,0.011999138607461015,-29.857924812944965,55.62970862870419,-84.375
1772746840.0604339,87.40820868327863,2.051916035582894,-8.030698382902369,-0.19354154484631356,-1.5992983376122583,9.634098659479516,-0.002213385064072215,0.016358200630011883,-0.030543261909900768,-29.857924812944965,55.62970862870419,-84.375
1772746840.1107173,87.36674365804073,2.031214739883548,-7.941755832597653,-0.197937787023072,-1.6364644179216723,9.595931383318078,0.04144937663438953,0.0011712053197317997,-0.013089969389957472,-28.793124190767177,54.44427109976823,-84.75
1772746840.1308632,87.36674365804073,2.031214739883548,-7.941755832597653,-0.197937787023072,-1.6364644179216723,9.595931383318078,0.04144937663438953,0.0011712053197317997,-0.013089969389957472,-28.793124190767177,54.44427109976823,-84.75
1772746840.1540399,87.39576752267035,2.0378437654588692,-7.956206364465717,-0.23101479017811977,-1.6378406682574636,9.680920173730591,-0.020717285210410014,-0.0044035032211066395,0.007635815477475192,-28.793124190767177,54.44427109976823,-84.75
1772746840.183491,87.3854212727265,2.036413175792993,-7.985972015843484,-0.18947016332896555,-1.6386333071640697,9.737479264363124,0.001082368038314781,0.004365430100499346,-0.014180800172453928,-30.29312137083385,54.44136252760331,-86.75
1772746840.2015288,87.36696000904664,2.020606907315275,-7.971113949942233,-0.18858352159400782,-1.6392126901623287,9.771773595665314,0.025086945657643505,0.0011394777192257216,-0.004363323129985824,-30.29312137083385,54.44136252760331,-86.75
1772746840.2451408,87.36696000904664,2.020606907315275,-7.971113949942233,-0.18858352159400782,-1.6392126901623287,9.771773595665314,0.025086945657643505,0.0011394777192257216,-0.004363323129985824,-30.29312137083385,54.44136252760331,-86.75
1772746840.3031623,87.36727523769788,2.021103559716154,-7.951376329894832,-0.16135586839270533,-1.5759893694607654,9.764490084688266,0.0010950590785172123,-0.0021795422901990653,0.002181661564992912,-29.107077889363527,55.19366373726721,-86.375
1772746840.3201096,87.36243637079184,2.0102282781633733,-7.981158744871349,-0.16999701268931816,-1.5339668464449123,9.75964298949519,0.004361199753765202,0.001099289425251356,-0.003272492347489368,-29.107077889363527,55.19366373726721,-86.375
1772746840.3581731,87.35406743875507,1.9845049509046107,-7.995494571159218,-0.1590804475903199,-1.4758629463696114,9.756417301789797,0.008722399507530404,0.002198578850502712,-0.007635815477475192,-29.10501765074671,54.13116573471998,-85.5625
1772746840.4850645,87.35170296026855,1.9281187836734712,-8.0685597590354,-0.1683984232405092,-1.510820200805736,9.744235307533195,-0.006544972390698412,-1.2691040202431215e-05,0.00545415391248228,-29.10501765074671,54.13116573471998,-85.5625
1772746840.5018473,87.35434351826738,1.8828668233676638,-8.101975744068353,-0.17137756684658303,-1.470520373847822,9.76957944351041,0.002181657463566137,4.2303467341437376e-06,0.0,-29.1063507463223,54.81866444225054,-85.5625
1772746840.523324,87.35434351826738,1.8828668233676638,-8.101975744068353,-0.17137756684658303,-1.470520373847822,9.76957944351041,0.002181657463566137,4.2303467341437376e-06,0.0,-29.1063507463223,54.81866444225054,-85.5625
1772746840.5500853,87.35503755580451,1.8674519353118455,-8.12627079853288,-0.17992063782385387,-1.5106163702241227,9.746304342402867,-0.0021753119434649213,-0.0032767165420833494,0.002181661564992912,-29.1063507463223,54.81866444225054,-85.5625
1772746840.5913637,87.3467198084857,1.8361649490871048,-8.165133586798515,-0.17894817695222387,-1.5205613081525657,9.73750524603035,0.0032767165420833494,-0.0021753119434649213,-0.006544984694978736,-28.793124190767177,54.44427109976823,-86.0
1772746840.6208098,87.3467198084857,1.8361649490871048,-8.165133586798515,-0.17894817695222387,-1.5205613081525657,9.73750524603035,0.0032767165420833494,-0.0021753119434649213,-0.006544984694978736,-28.793124190767177,54.44427109976823,-86.0
1772746840.6496966,87.34799643105535,1.8161928794322186,-8.174501583613404,-0.1749559096865958,-1.5271730669191752,9.731649545686787,2.1151733670718688e-06,-0.0010908287317830685,0.0,-28.793124190767177,54.44427109976823,-86.0
1772746840.6900814,87.34509441233111,1.7752155277274348,-8.22326043709807,-0.17229910041786778,-1.5315731185201689,9.727752642520604,0.0010908287317830685,2.1151733670718688e-06,0.0,-28.356352156288963,54.820118728333,-85.1875
1772746840.7265053,87.34596210964096,1.7600500820959868,-8.237685769569815,-0.16389270335098644,-1.5077274876945017,9.745229967238688,-0.0010887135584159967,-0.0010929439051501405,0.001090830782496456,-28.356352156288963,54.820118728333,-85.1875
1772746840.7473967,87.34696669829556,1.7451338214695824,-8.242245273700362,-0.1682947382693574,-1.5119485782627193,9.733445149652827,0.0,0.0,0.0,-29.855622193314403,54.44221086115141,-86.0
1772746840.7722745,87.34696669829556,1.7451338214695824,-8.242245273700362,-0.1682947382693574,-1.5119485782627193,9.733445149652827,0.0,0.0,0.0,-29.855622193314403,54.44221086115141,-86.0
1772746840.8009958,87.34800151644465,1.7246657271666848,-8.271344529802416,-0.17122424333358124,-1.5147576668831968,9.732292708609114,0.0010887135584159967,0.0010929439051501405,0.0,-29.855622193314403,54.44221086115141,-86.0
1772746840.8512845,87.34800151644465,1.7246657271666848,-8.271344529802416,-0.17122424333358124,-1.5147576668831968,9.732292708609114,0.0010887135584159967,0.0010929439051501405,0.0,-29.855622193314403,54.44221086115141,-86.0
1772746840.8769455,87.34411918878297,1.7041527510055317,-8.291001919928936,-0.1731737962291064,-1.5166270839805487,9.731525771968132,0.002179542290199065,0.0010950590785172123,0.0,-29.855622193314403,54.44221086115141,-86.75
1772746840.8954117,87.34530085718355,1.6839332765345436,-8.310235039613085,-0.171100151154353,-1.5312450955181776,9.731015384200802,2.1151733670718688e-06,-0.0010908287317830685,0.0,-29.855622193314403,54.44221086115141,-86.75
1772746840.9208052,87.34589422454471,1.6738238338644713,-8.319851542724521,-0.16972664985377153,-1.5376281134839231,9.72733061513573,-4.2303467341437376e-06,0.002181657463566137,-0.004363323129985824,-29.855622193314403,54.44221086115141,-86.75
1772746840.9577432,87.34678744183358,1.6586600397027103,-8.334276227353003,-0.1688126000812494,-1.5418759406371443,9.724878442484492,0.002181657463566137,4.2303467341437376e-06,-0.003272492347489368,-29.104169317198608,53.69366655720054,-86.5
1772746840.9959548,87.34232830202639,1.6482519669971185,-8.344316430828593,-0.16823025549837547,-1.5313224004816421,9.733281884099615,0.0010887135584159967,0.0010929439051501405,0.0,-29.104169317198608,53.69366655720054,-86.5
1772746841.0094283,87.34262779220751,1.643197144369415,-8.349124599984604,-0.1678427116836881,-1.5242991373989236,9.738874280621884,4.2303467341437376e-06,-0.002181657463566137,0.0,-29.104169317198608,53.69366655720054,-86.5
1772746841.0280316,87.34322803900437,1.6330876483881973,-8.358740911002018,-0.1678427116836881,-1.5242991373989236,9.738874280621884,0.002183772636933209,-0.0010865983850489249,-0.001090830782496456,-28.79251823823282,54.13177168725434,-86.0
1772746841.0583029,87.34322803900437,1.6330876483881973,-8.358740911002018,-0.1678427116836881,-1.5242991373989236,9.738874280621884,0.002183772636933209,-0.0010865983850489249,-0.001090830782496456,-28.79251823823282,54.13177168725434,-86.0
1772746841.1225047,87.34413157515024,1.6179237786927243,-8.373165309874478,-0.16759777826922903,-1.5129350234350476,9.742595958036292,0.002183772636933209,-0.0010865983850489249,-0.001090830782496456,-28.79251823823282,54.13177168725434,-86.0
1772746841.1416945,87.34503891021956,1.6027603598741393,-8.387589628494965,-0.1707409652414482,-1.525449451382041,9.7417275810744,-0.0010929439051501403,0.0010887135584159967,-0.001090830782496456,-29.10501765074671,54.13116573471998,-86.5
1772746841.1652298,87.3453421994056,1.5977059874688102,-8.392397717049294,-0.16615548288751217,-1.5270744798830616,9.741149685906668,-2.1151733670718688e-06,0.0010908287317830685,0.0,-29.10501765074671,54.13116573471998,-86.5
1772746841.1843104,87.3453421994056,1.5977059874688102,-8.392397717049294,-0.16615548288751217,-1.5270744798830616,9.741149685906668,-2.1151733670718688e-06,0.0010908287317830685,0.0,-29.10501765074671,54.13116573471998,-86.5
1772746841.2206905,87.34625459932587,1.5825431728733304,-8.406821930298511,-0.1631038956041619,-1.528155918197733,9.730729768006096,0.0021858878103002805,-0.0021774271168319933,-0.002181661564992912,-27.980625718231064,54.44584657635756,-86.375
1772746841.2593014,87.34150330440752,1.5771838982049866,-8.412053476089751,-0.16107309835555583,-1.5288756033156896,9.723795429041376,0.0010929439051501403,-0.0010887135584159967,0.0,-27.980625718231064,54.44584657635756,-86.375
1772746841.2838678,87.3424209578491,1.562020423480925,-8.426477519502257,-0.1630667308907582,-1.5293610320548137,9.722525815629316,0.0010908287317830685,2.1151733670718688e-06,-0.001090830782496456,-28.356352156288963,54.820118728333,-84.75
1772746841.3010898,87.3424209578491,1.562020423480925,-8.426477519502257,-0.1630667308907582,-1.5293610320548137,9.722525815629316,0.0010908287317830685,2.1151733670718688e-06,-0.001090830782496456,-28.356352156288963,54.820118728333,-84.75
1772746841.3282235,87.3427276864137,1.556966033622453,-8.431285516956404,-0.1643934710726008,-1.5296840794581064,9.735061348915378,-0.0010865983850489246,-0.002183772636933209,-0.003272492347489368,-28.356352156288963,54.820118728333,-84.75
1772746841.3522139,87.34303483700526,1.551911694743254,-8.436093505966916,-0.1652764018429581,-1.5298990638963215,9.730023159456893,-0.0010887135584159967,-0.0010929439051501405,0.0,-28.356352156288963,54.820118728333,-84.75
1772746841.3813,87.34303483700526,1.551911694743254,-8.436093505966916,-0.1652764018429581,-1.5298990638963215,9.730023159456893,-0.0010887135584159967,-0.0010929439051501405,0.0,-28.356352156288963,54.820118728333,-84.75
1772746841.409983,87.34395882085143,1.5367489847082443,-8.450517422724845,-0.16586398240764794,-1.5300421336384205,9.730015412359855,0.0,0.0,0.0,-29.10501765074671,54.13116573471998,-86.5
1772746841.4371445,87.34457692005132,1.5266407675806317,-8.46013332572361,-0.16292287795615326,-1.5234406477837437,9.730010256753316,-0.0010908287317830685,-2.1151733670718688e-06,-0.001090830782496456,-29.10501765074671,54.13116573471998,-86.5
1772746841.4700086,87.34457692005132,1.5266407675806317,-8.46013332572361,-0.16292287795615326,-1.5234406477837437,9.730010256753316,-0.0010908287317830685,-2.1151733670718688e-06,-0.001090830782496456,-29.10501765074671,54.13116573471998,-86.5
1772746841.4965696,87.34519670714216,1.5165327561146629,-8.46974919587937,-0.16430422488409738,-1.5223990244420769,9.730006825754757,0.0010887135584159967,0.0010929439051501405,0.0,-28.79251823823282,54.13177168725434,-86.5
1772746841.5110743,87.340451360958,1.5111681666262022,-8.474980331929444,-0.165223495833988,-1.5217058357438928,9.730004542463542,-2.1151733670718688e-06,0.0010908287317830685,-0.002181661564992912,-28.79251823823282,54.13177168725434,-86.5
1772746841.5246284,87.340451360958,1.5111681666262022,-8.474980331929444,-0.165223495833988,-1.5217058357438928,9.730004542463542,-2.1151733670718688e-06,0.0010908287317830685,-0.002181661564992912,-28.79251823823282,54.13177168725434,-86.5
1772746841.5494835,87.34076237282493,1.5061138672979038,-8.479788224633076,-0.16918036580086884,-1.5212510127412102,9.730003022958744,-0.0010908287317830685,-2.1151733670718688e-06,-0.001090830782496456,-28.79251823823282,54.13177168725434,-86.5
1772746841.586184,87.33626613699083,1.500636623511587,-8.484284460467144,-0.17181361856269434,-1.5209483331136306,9.730002011745276,-0.0010887135584159967,-0.0010929439051501405,0.0,-29.854167907231943,53.69221227111807,-85.5625
1772746841.6326723,87.33689028646836,1.490528325916595,-8.493899361924578,-0.1735660188603285,-1.5207469032026293,9.730001338794008,0.0,0.0,0.0,-29.854167907231943,53.69221227111807,-85.5625
1772746841.667823,87.33751612356053,1.4804202360402265,-8.503514231691032,-0.17471924901774277,-1.5273030646842936,9.730000890952457,-0.002179542290199065,-0.0010950590785172123,0.001090830782496456,-29.1063507463223,54.81866444225054,-84.875
1772746841.6976426,87.33751612356053,1.4804202360402265,-8.503514231691032,-0.175486710805077,-1.5316661169132186,9.730000592918907,-0.0010929439051501403,0.0010887135584159967,0.001090830782496456,-29.1063507463223,54.81866444225054,-84.875
1772746841.7193058,87.33751612356053,1.4804202360402265,-8.503514231691032,-0.17265882896531362,-1.53121808768189,9.730000394580909,0.0010887135584159967,0.0010929439051501405,0.0,-29.480622898297735,54.44293800419264,-86.75
1772746841.7423928,87.33751612356053,1.4804202360402265,-8.503514231691032,-0.17265882896531362,-1.53121808768189,9.730000394580909,0.0010887135584159967,0.0010929439051501405,0.0,-29.480622898297735,54.44293800419264,-86.75
1772746841.7980464,87.33751612356053,1.4804202360402265,-8.503514231691032,-0.16395758681510775,-1.528484574913118,9.736690398164809,0.0010887135584159967,0.0010929439051501405,0.0,-29.855016240780046,54.12971144863752,-86.0625
1772746841.8270147,87.33751612356053,1.4804202360402265,-8.503514231691032,-0.16395758681510775,-1.528484574913118,9.736690398164809,0.0010887135584159967,0.0010929439051501405,0.0,-29.855016240780046,54.12971144863752,-86.0625
1772746841.8581562,87.33751612356053,1.4804202360402265,-8.503514231691032,-0.1649863257387427,-1.5291008070209755,9.741142608656675,-0.0010865983850489246,-0.002183772636933209,0.002181661564992912,-29.855016240780046,54.12971144863752,-86.0625
1772746841.896025,87.33751612356053,1.4804202360402265,-8.503514231691032,-0.165670940000655,-1.5295109026049911,9.744105505004562,-0.002183772636933209,0.0010865983850489249,0.002181661564992912,-28.790942761643485,53.31927321471823,-86.0
1772746841.9135592,87.33751612356053,1.4804202360402265,-8.503514231691032,-0.16947164856297325,-1.5297903029676194,9.74273216771904,0.0,0.0,0.002181661564992912,-28.790942761643485,53.31927321471823,-86.0
1772746841.9271417,87.33751612356053,1.4804202360402265,-8.503514231691032,-0.16947164856297325,-1.5297903029676194,9.74273216771904,0.0,0.0,0.002181661564992912,-28.790942761643485,53.31927321471823,-86.0
1772746841.9579852,87.33751612356053,1.4804202360402265,-8.503514231691032,-0.16865587223584147,-1.5299697544553081,9.741818227096708,0.0,0.0,0.001090830782496456,-29.479168612215275,53.692939414159305,-87.25
1772746841.9904954,87.33751612356053,1.4804202360402265,-8.503514231691032,-0.16811298220295398,-1.5300891774157608,9.741210009821932,-2.1151733670718688e-06,0.0010908287317830685,0.002181661564992912,-29.479168612215275,53.692939414159305,-87.25
1772746842.0204308,87.33751612356053,1.4804202360402265,-8.503514231691032,-0.16775818128307998,-1.5268235466432418,9.737460136312482,2.1151733670718688e-06,-0.0010908287317830685,0.0,-29.479168612215275,53.692939414159305,-87.25
1772746842.046624,87.33751612356053,1.4804202360402265,-8.503514231691032,-0.16752206523428984,-1.5246503058436167,9.734964637380774,-0.0010908287317830685,-2.1151733670718688e-06,0.001090830782496456,-29.478441469174044,53.31794011914264,-85.5625
1772746842.3074949,87.33751612356053,1.4804202360402265,-8.503514231691032,-0.16712646889367308,-1.5304536216783426,9.734318868751934,-0.0010887135584159967,-0.0010929439051501405,0.001090830782496456,-28.790942761643485,53.31927321471823,-86.75
1772746842.351655,87.33751612356053,1.4804202360402265,-8.503514231691032,-0.16712646889367308,-1.5304536216783426,9.734318868751934,-0.0010887135584159967,-0.0010929439051501405,0.001090830782496456,-28.790942761643485,53.31927321471823,-86.75
1772746842.4064198,87.33751612356053,1.4804202360402265,-8.503514231691032,-0.1637500759446376,-1.5304046993150053,9.736219270616807,-2.1151733670718688e-06,0.0010908287317830685,-0.002181661564992912,-28.790942761643485,53.31927321471823,-86.75
1772746842.4677873,87.33751612356053,1.4804202360402265,-8.503514231691032,-0.16486120223756037,-1.5236884175239207,9.737483966829,-0.0010929439051501403,0.0010887135584159967,-0.001090830782496456,-28.793124190767177,54.44427109976823,-86.0
1772746842.4876695,87.33751612356053,1.4804202360402265,-8.503514231691032,-0.16486120223756037,-1.5236884175239207,9.737483966829,-0.0010929439051501403,0.0010887135584159967,-0.001090830782496456,-28.793124190767177,54.44427109976823,-86.0
1772746842.5079253,87.33751612356053,1.4804202360402265,-8.503514231691032,-0.16559415804087288,-1.5225639124363952,9.734980496323312,-2.1151733670718688e-06,0.0010908287317830685,0.0,-28.793124190767177,54.44427109976823,-86.0
1772746842.5303159,87.33751612356053,1.4804202360402265,-8.503514231691032,-0.16559415804087288,-1.5225639124363952,9.734980496323312,-2.1151733670718688e-06,0.0010908287317830685,0.0,-28.793124190767177,54.44427109976823,-86.0
1772746842.5546257,87.33751612356053,1.4804202360402265,-8.503514231691032,-0.16559415804087288,-1.5225639124363952,9.734980496323312,-2.1151733670718688e-06,0.0010908287317830685,0.0,-28.793124190767177,54.44427109976823,-86.0
1772746842.6319377,87.33751612356053,1.4804202360402265,-8.503514231691032,-0.16608193194032456,-1.5218155668621922,9.743349799789332,0.0,0.0,-0.001090830782496456,-29.854167907231943,53.69221227111807,-86.5
1772746842.687257,87.33751612356053,1.4804202360402265,-8.503514231691032,-0.16640654002161817,-1.5213175512421278,9.752264589462042,-0.002183772636933209,0.0010865983850489249,-0.001090830782496456,-29.480622898297735,54.44293800419264,-86.0625
1772746842.727263,87.33751612356053,1.4804202360402265,-8.503514231691032,-0.16640654002161817,-1.5213175512421278,9.752264589462042,-0.002183772636933209,0.0010865983850489249,-0.001090830782496456,-29.480622898297735,54.44293800419264,-86.0625
1772746842.762743,87.33751612356053,1.4804202360402265,-8.503514231691032,-0.16661607674107556,-1.5243312328288319,9.758197282404506,-0.0021753119434649213,-0.0032767165420833494,0.001090830782496456,-29.480622898297735,54.44293800419264,-86.0625
1772746842.798836,87.33751612356053,1.4804202360402265,-8.503514231691032,-0.16675552108719596,-1.5263368042597543,9.748764976455917,0.0,0.0,-0.002181661564992912,-27.980625718231064,54.44584657635756,-86.0625
1772746842.8413343,87.33751612356053,1.4804202360402265,-8.503514231691032,-0.16675552108719596,-1.5263368042597543,9.748764976455917,0.0,0.0,-0.002181661564992912,-27.980625718231064,54.44584657635756,-86.0625
1772746842.8658454,87.33751612356053,1.4804202360402265,-8.503514231691032,-0.16684183340931,-1.5310165950619905,9.74248788221289,0.0010908287317830685,2.1151733670718688e-06,0.001090830782496456,-27.980625718231064,54.44584657635756,-86.0625
1772746842.929509,87.54914447950962,1.450529009106973,-8.777487120951886,-0.16689927329550508,-1.5341309435641899,9.728275210991935,-0.029380459863662407,-0.037145286561535276,0.055632369907319255,-29.102715031116148,52.9436679671672,-87.25
1772746842.9735086,87.59867751823106,1.499187657040563,-8.529785915644636,-0.21695840819718581,-1.6165833327386494,9.71881683706033,0.17994232210349778,0.023256406973011297,-0.04036073895236887,-29.102715031116148,52.9436679671672,-87.25
1772746843.0352411,87.55107981421047,1.4819709190324812,-8.475754369940928,-0.2502722032770773,-1.671454476680715,9.842981751451264,-0.02288625163377372,-0.010952705958539194,-0.006544984694978736,-29.849926239491435,51.50471638352085,-85.25
1772746843.0826166,87.6589511487704,1.466680463091536,-8.642504793626607,-0.22895579132071564,-1.7078862877003822,9.925612114965455,-0.02395592863188607,-0.02186310844973695,0.0545415391248228,-29.849926239491435,51.50471638352085,-85.25
1772746843.1328883,87.73358845542437,1.4733034066808486,-8.591984191202055,-0.21495157459462272,-1.6384682992415502,10.007362592501064,0.024017268659531153,-0.009770924771972035,0.038179077387375956,-28.793124190767177,54.44427109976823,-84.0625
1772746843.1503024,87.8632737136156,1.4519634746174075,-8.658959684845543,-0.20563192480075898,-1.5922714033719383,9.89451103672237,-0.0457682729208133,-0.024087069380644525,0.06654067773228381,-28.793124190767177,54.44427109976823,-84.0625
1772746843.237667,88.49510746268372,1.4734957422810173,-8.764700783475398,-0.17944349178124125,-1.5180025967860953,9.81940958698613,-0.04469013522923266,-0.017539981816579044,0.13308135546456762,-29.857076479396863,55.192209451184745,-84.875
1772746843.2739768,88.8922914350637,1.4743056870766913,-8.739120179878967,-0.16201538215071734,-1.4685775356401465,9.769430411124823,6.13400276450842e-05,-0.03163403322170899,0.1832595714594046,-29.857076479396863,55.192209451184745,-84.875
1772746843.361921,89.52857705122484,1.5179324205922184,-8.756190395477073,-0.15034582021847454,-1.4724818691668653,9.772966056673614,0.0022006940238697838,-0.009813228239313472,0.19525871006686563,-28.35707929933019,55.195118023349664,-82.875
1772746843.3862514,90.1655542861021,1.5517489454656972,-8.781879273985822,-0.2094560201531416,-1.4885903078399383,9.775318989290586,0.021833496022597945,-0.00868432638692311,0.17453292519943295,-28.35707929933019,55.195118023349664,-82.875
1772746843.431141,90.31756520813691,1.5734182642576569,-8.79002345379866,-0.22526719232178602,-1.5561316816232695,9.72670816405341,-0.00870547812059383,-0.01092520870476726,0.13744467859455345,-28.35707929933019,55.195118023349664,-82.875
1772746843.4588118,90.67694474364599,1.6013182639943044,-8.834645642497819,-0.24243415728723358,-1.6245084219851689,9.67428753263265,-0.023974965192189716,-0.012045649863689334,0.09926560120717749,-28.357927632878294,55.63261720086911,-82.5
1772746843.486183,90.82643518563593,1.5930100177454933,-8.832608315701346,-0.24716836986685897,-1.6699994062127081,9.659472858242873,0.012020267783284471,-0.010885020410792895,0.08726646259971647,-28.357927632878294,55.63261720086911,-82.5
1772746843.535162,90.82643518563593,1.5930100177454933,-8.832608315701346,-0.24716836986685897,-1.6699994062127081,9.659472858242873,0.012020267783284471,-0.010885020410792895,0.08726646259971647,-28.357927632878294,55.63261720086911,-82.5
1772746843.5885038,91.2273560338725,1.6042349573472308,-8.837169250712074,-0.22032325433912942,-1.6433479789385554,9.71651609207362,-0.005432991925244624,-0.010918863184666044,0.09599310885968812,-26.984869265927127,56.635281512064736,-81.5625
1772746843.6325758,91.2273560338725,1.6042349573472308,-8.837169250712074,-0.22032325433912942,-1.6433479789385554,9.71651609207362,-0.005432991925244624,-0.010918863184666044,0.09599310885968812,-26.984869265927127,56.635281512064736,-81.5625
1772746843.705363,92.93882948316214,1.6810956234046648,-8.788929357576448,-0.17074997473202835,-1.5023449273852767,9.746289653866612,0.005487986432788492,-0.017442683841693736,0.26070855701665296,-26.98644474251646,57.44777998460085,-81.25
1772746843.7361817,93.30456919625023,1.699546339255927,-8.793673896610656,-0.19604040573209575,-1.6288357439034937,9.724115024144277,-0.007591382481772971,-0.022922209581013944,0.21925698728178766,-26.98644474251646,57.44777998460085,-81.25
1772746843.7881975,93.98828704097993,1.717179033959235,-8.77951762810319,-0.21287090505001527,-1.7130139693013633,9.709358055770908,-0.0032386434214760557,-0.017459605228630312,0.1930770485018727,-26.176006508597165,58.5118534637374,-78.75
1772746843.8451023,94.74852727110728,1.710401381789559,-8.75548406506363,-0.19416005554518115,-1.66862209841871,9.699537458164567,-0.008682211213556038,-0.022924324754381015,0.23671027980173096,-26.176006508597165,58.5118534637374,-78.75
1772746843.935867,95.73112442337028,1.717722060345292,-8.773861998264916,-0.2035275683617573,-1.6194781144592487,9.732103651461717,0.0022387671444770775,-0.029448145411408708,0.19416787928436915,-26.61508116270594,59.32350360272542,-78.875
1772746844.1204872,97.81506070323144,1.6919035047433124,-8.793364171784859,-0.20425674877096553,-1.6177657112460857,9.722003477562923,-0.004310435592955477,-0.027279178988045,0.18216874067690814,-24.678190757654185,59.63975992095233,-76.5
1772746844.2455797,98.54192766211091,1.6791929502675491,-8.79725502665245,-0.19509169627508577,-1.6186288410153806,9.711297956815857,0.007684450109924133,-0.025074254617441075,0.17780541754692233,-24.680250996271003,60.70225792349955,-75.25
1772746844.3472202,99.95437435688247,1.6923381569477005,-8.8241524216852,-0.1890638058772925,-1.5824070846298164,9.704173552347186,-0.010855407983653888,-0.02729187002824743,0.20943951023931956,-24.680250996271003,60.70225792349955,-75.25
1772746844.4051452,99.95437435688247,1.6923381569477005,-8.8241524216852,-0.1890638058772925,-1.5824070846298164,9.704173552347186,-0.010855407983653888,-0.02729187002824743,0.20943951023931956,-24.680250996271003,60.70225792349955,-75.25
1772746844.4861507,99.95437435688247,1.6923381569477005,-8.8241524216852,-0.14825615254827026,-1.5582305607208844,9.659291000270265,-0.00977515511870618,-0.021835611195965016,0.16471544815696484,-23.30525358120989,60.70492411465073,-74.5
1772746844.5669248,102.1913510371893,1.7009155910353928,-8.891697700883972,-0.12107965611156139,-1.5521766703849322,9.602661269575478,-0.0010527556111757748,-0.019637032345462307,0.21925698728178766,-23.30525358120989,60.70492411465073,-74.5
1772746844.6965964,103.06187222684517,1.7324344212799763,-8.912294238239514,-0.12285707118516023,-1.6552301653850017,9.564974816393638,-0.016330703376239947,-0.016394158577252106,0.13853550937704992,-21.808164973308145,62.20782986688232,-71.25
1772746844.8083043,104.25777384423569,1.7129413319423716,-8.912822294035378,-0.12403992106161292,-1.7238111151245799,9.526514455957113,0.004409848741207855,-0.023989771405759218,0.17235126363444003,2027.0004833502546,66.18057587264332,-71.25
1772746844.8918161,105.57887129008452,1.7085880502379425,-8.98723634337771,-0.14563685059092063,-1.6705579583336405,9.483886368901391,-0.011967388449107675,-0.016385697883783818,0.15707963267948966,-19.18316990819147,62.21291986817093,-69.25
1772746844.9213827,105.89398721653198,1.7179406393176717,-8.979786914748523,-0.11264632908114916,-1.626916326051906,9.502657005334207,-0.004310435592955477,-0.027279178988045,0.19198621771937624,-19.18316990819147,62.21291986817093,-69.25
1772746844.984245,105.89398721653198,1.7179406393176717,-8.979786914748523,-0.11264632908114916,-1.626916326051906,9.502657005334207,-0.004310435592955477,-0.027279178988045,0.19198621771937624,-19.18316990819147,62.21291986817093,-69.25
1772746845.040741,107.14131492308823,1.8015146333815237,-8.93273788018009,-0.13954052369908754,-1.6288453243127325,9.683908868998012,-0.013058217180890746,-0.01638781305715089,0.18216874067690814,-20.308167793241473,62.21073843904724,-69.5625
1772746845.0798237,107.14131492308823,1.8015146333815237,-8.93273788018009,-0.13954052369908754,-1.6288453243127325,9.683908868998012,-0.013058217180890746,-0.01638781305715089,0.18216874067690814,-20.308167793241473,62.21073843904724,-69.5625
1772746845.110875,107.14131492308823,1.8015146333815237,-8.93273788018009,-0.17201656793889794,-1.666182382762945,9.729432872555721,3.38427738731499e-05,-0.017453259708529095,0.20398535632683726,-19.18316990819147,62.21291986817093,-67.25
1772746845.1855009,108.20105054264263,1.7950325083725658,-8.954931637779268,-0.17201656793889794,-1.666182382762945,9.729432872555721,3.38427738731499e-05,-0.017453259708529095,0.20398535632683726,-19.18316990819147,62.21291986817093,-67.25
1772746845.2329035,109.15230941258666,1.7789470024395206,-8.969850144846436,-0.15348774757541053,-1.6909519420888866,9.729622583021062,-0.007580806614937611,-0.028376353239929285,0.22907446432425577,-19.18316990819147,62.21291986817093,-67.25
1772746845.261894,109.6055965323253,1.7811450704996996,-8.973722127614469,-0.14115702460399507,-1.707435807126193,9.72974883321654,-0.0032259523812736245,-0.024004577619328723,0.19634954084936207,-17.683172728124802,62.215828440335855,-66.5
1772746845.319216,109.91301272891992,1.781704243982886,-8.97817508169246,-0.15303467138673457,-1.7117543423295687,9.719797516189367,-0.008697017427125541,-0.015288523631899534,0.17671458676442586,-17.683172728124802,62.215828440335855,-66.5
1772746845.3651464,110.76744956377884,1.8253284649288097,-8.899227123315011,-0.16095857163624036,-1.7045929630102417,9.713175025871278,0.012032958823486904,-0.017429992801491306,0.21380283336930536,-16.99785544971793,63.342159420961444,-66.0625
1772746845.428491,111.51044620900457,1.7898552345239949,-8.974207665475294,-0.11632748153075248,-1.6408394080747113,9.689109336077433,-0.017406725894453513,-0.024032074873100655,0.20180369476184434,-15.87067613554424,62.21934296503513,-65.25
1772746845.4516425,111.8746242884565,1.7852719364005671,-8.97993783501534,-0.11983725140264032,-1.6406419076793968,9.665991491157664,-0.0021372388228576276,-0.022911633714178585,0.23343778745424157,-15.87067613554424,62.21934296503513,-65.25
1772746845.4828224,111.8746242884565,1.7852719364005671,-8.97993783501534,-0.11983725140264032,-1.6406419076793968,9.665991491157664,-0.0021372388228576276,-0.022911633714178585,0.23343778745424157,-15.87067613554424,62.21934296503513,-65.25
1772746845.5026248,112.38169167226587,1.7686080773738315,-8.993261841177151,-0.12217296404568329,-1.6405104733725389,9.650606823606806,-0.004282938339183542,-0.041459952501224896,0.21489366415180183,-15.495676840527572,62.220070108076364,-64.875
1772746845.551122,112.8480058143599,1.7546401674722192,-8.985926412734875,-0.12387005403374864,-1.5668306860990653,9.697235398234136,-0.007574461094836396,-0.03164883943527849,0.18435040224190105,-15.495676840527572,62.220070108076364,-64.875
1772746845.5894935,113.37114156518244,1.7354123339368477,-8.98010892513975,-0.15510539723099126,-1.517855987718524,9.734956417187956,-0.007593497655140042,-0.021831380849230874,0.1908953869368798,-16.990099257278143,59.342166940783656,-64.875
1772746845.6273718,113.74161782974446,1.7256303441896492,-8.982472429994628,-0.13908303693680452,-1.4918827342089476,9.760059333930332,0.004409848741207855,-0.023989771405759218,0.22362031041177347,-16.990099257278143,59.342166940783656,-64.875
1772746845.6656568,113.74161782974446,1.7256303441896492,-8.982472429994628,-0.13908303693680452,-1.4918827342089476,9.760059333930332,0.004409848741207855,-0.023989771405759218,0.22362031041177347,-16.990099257278143,59.342166940783656,-64.875
1772746845.7161875,114.50756215881196,1.7373101510374156,-8.981491370288598,-0.17516100234825688,-1.5215201086552606,9.76672970948247,-0.007582921788304683,-0.027285524508146215,0.19525871006686563,-14.810359562120707,63.34640108870195,-65.25
1772746845.7462823,114.94895125103332,1.7428832033481096,-8.981101922747222,-0.1523714411137534,-1.5244271145293553,9.72433720599697,-0.02394535276505071,-0.027317252108652296,0.20725784867432664,-14.810359562120707,63.34640108870195,-65.25
1772746845.7715657,115.47601886615112,1.750761983110576,-8.959807948352992,-0.18067215413322463,-1.5364813330440936,9.696125468482663,0.003316904836057715,-0.022901057847343226,0.22907446432425577,-13.989377754103575,58.97298479009683,-64.0625
1772746845.825548,116.11769128721896,1.7624170117955409,-8.959219391934795,-0.17943532999605563,-1.5444643628160064,9.67735087231265,-0.005392803631270258,-0.03164460908854435,0.2279836335417593,-13.989377754103575,58.97298479009683,-64.0625
1772746845.8575985,116.11769128721896,1.7624170117955409,-8.959219391934795,-0.17943532999605563,-1.5444643628160064,9.67735087231265,-0.005392803631270258,-0.03164460908854435,0.2279836335417593,-13.989377754103575,58.97298479009683,-64.0625
1772746845.910204,117.31038288248448,1.7749723175089616,-8.965150345564359,-0.18337644414936707,-1.6870329272060833,9.589686827664705,-0.006511129616825262,-0.01746595074873153,0.14835298641951802,-15.115102782194807,59.34580265598981,-64.0625
1772746845.969483,117.31038288248448,1.7749723175089616,-8.965150345564359,-0.18337644414936707,-1.6870329272060833,9.589686827664705,-0.006511129616825262,-0.01746595074873153,0.14835298641951802,-15.115102782194807,59.34580265598981,-64.0625
1772746846.0115025,117.62203318808788,1.7728482647184434,-8.976962545305556,-0.18442443823075028,-1.724943783339636,9.606517145845823,0.0011204411589220745,-0.015269487071595889,0.08835729338221293,-13.306726666847887,61.47431318578354,-62.5
1772746846.03291,117.78510458738711,1.7783918374398713,-8.986418562122433,-0.2687235567213666,-1.7637156145924773,9.651168651661576,0.0120181526099174,-0.009794191679009826,0.04036073895236887,-13.306726666847887,61.47431318578354,-62.5
1772746846.0510275,117.82901094426435,1.7890042062973113,-8.973341139347207,-0.26126667543951343,-1.7893945948633703,9.647432612918765,0.020729976250612445,-0.0021414691695917716,0.015271630954950384,-13.306726666847887,61.47431318578354,-62.5
1772746846.0721354,117.81871628539545,1.7978656267883835,-8.971325747299613,-0.256576630211675,-1.6659892417970061,9.638256097455074,0.019637032345462303,-0.001052755611175775,-0.01090830782496456,-12.619227959317328,61.475646281359126,-60.875
1772746846.133847,117.81871628539545,1.7978656267883835,-8.971325747299613,-0.256576630211675,-1.6659892417970061,9.638256097455074,0.019637032345462303,-0.001052755611175775,-0.01090830782496456,-12.619227959317328,61.475646281359126,-60.875
1772746846.1611073,117.95699410286572,1.799102485094005,-8.971644223853776,-0.20996908706123177,-1.5837800355365224,9.632149228922382,2.115173367071869e-05,-0.010908287317830685,0.04363323129985824,-12.619227959317328,61.475646281359126,-60.875
1772746846.19183,117.91440657290978,1.816164887269705,-8.992684228402558,-0.17893282873738173,-1.5391060433631505,9.694987410278452,0.019592613704753795,0.021854647756268664,-0.039269908169872414,-11.807456629822447,61.85222105296512,-59.5625
1772746846.2265255,117.89919787037917,1.8125677110481568,-8.983254897669124,-0.15810341454217336,-1.5996938469167303,9.78698219363223,0.011999116049613753,2.3266907037790556e-05,0.003272492347489368,-11.807456629822447,61.85222105296512,-59.5625
1772746846.2488005,117.88398871891519,1.8089730633765873,-8.973824700711441,-0.15445211930944702,-1.549715966065359,9.798027018695313,0.005435107098611696,0.009828034452882975,-0.01090830782496456,-11.807456629822447,61.85222105296512,-59.5625
1772746846.3283844,117.8737350023868,1.8129664316055574,-8.993320240688915,-0.15184709214129963,-1.6067740909520487,9.945871918103428,-0.02184195671606623,0.013047641314055386,-0.050178215994836975,-11.493624121732967,61.16532829796893,-58.875
1772746846.3600268,117.54167250224275,1.8130332066349943,-9.063625899498874,-0.21391695925173906,-1.5177548700922556,9.984049036392042,-0.01964126269219645,0.003234413074741912,-0.04036073895236887,-11.493624121732967,61.16532829796893,-58.875
1772746846.4200962,117.20796125208898,1.7873790254856592,-9.13541287914856,-0.25513944012495227,-1.5019999434624716,10.009455482146759,-0.036001578495575406,0.0021118567424527656,-0.07963064712224129,-10.678823029566292,59.97940600700548,-59.25
1772746846.443835,117.20796125208898,1.7873790254856592,-9.13541287914856,-0.25513944012495227,-1.5019999434624716,10.009455482146759,-0.036001578495575406,0.0021118567424527656,-0.07963064712224129,-10.678823029566292,59.97940600700548,-59.25
1772746846.485246,117.01382756035596,1.779150378074826,-9.126207735726743,-0.2827152399765321,-1.4179228965739352,9.939390283597625,0.015246220164558098,0.01311955720853583,-0.11453723216212788,-10.678823029566292,59.97940600700548,-59.25
1772746846.547286,116.6848446564121,1.7529324767183532,-9.131449927628335,-0.2674728732335697,-1.435498016956908,9.892762676642727,-2.538208040486243e-05,0.013089944781396823,-0.136353847812057,-11.487806977403126,58.165333937835584,-58.0625
1772746846.6417859,116.21587791173027,1.734848416039966,-9.199690647572007,-0.3107990444727809,-1.4740586879146207,9.86173252507874,0.005441452618712911,0.006555548257533771,-0.10362892433716332,-11.487806977403126,58.165333937835584,-58.0625
1772746846.691633,115.69609492549958,1.6886812477703184,-9.188478910011375,-0.23258875405037346,-1.499512821044983,9.79425074193994,0.013058217180890746,0.01638781305715089,-0.1265363707695889,-8.863539055327685,58.54542323414086,-58.0625
1772746846.7477627,115.35005742814614,1.6233431951623154,-9.252633933271515,-0.2474687331437461,-1.503201567277982,9.74934236908198,-0.007642146642582695,0.0032576799817797025,-0.08835729338221293,-8.863539055327685,58.54542323414086,-58.0625
1772746846.8021474,114.94173955837208,1.5703678277318207,-9.237070303430041,-0.241894364842939,-1.406940993091638,9.907977058975415,-0.027272833467943784,0.0010379493976062717,-0.05781403147231216,-9.298129660682209,57.04457772052609,-57.6875
1772746846.8464515,114.94173955837208,1.5703678277318207,-9.237070303430041,-0.241894364842939,-1.406940993091638,9.907977058975415,-0.027272833467943784,0.0010379493976062717,-0.05781403147231216,-9.298129660682209,57.04457772052609,-57.6875
1772746846.890479,114.73603866318663,1.5381542470687277,-9.238206785226456,-0.2637746654220926,-1.4014742438438101,9.975555989492259,0.013073023394460249,0.00875201193466941,-0.061086523819801536,-8.857964292011587,55.67042863901308,-57.6875
1772746846.9295974,114.4145789779167,1.4944943068936374,-9.231091593652724,-0.27813468473000397,-1.501534451265371,9.92017566162552,-0.006559778604267915,0.007623110082279049,-0.08726646259971647,-8.857964292011587,55.67042863901308,-57.6875
1772746846.9550018,114.2478915682421,1.4813803173041775,-9.258422451681662,-0.2507587445790476,-1.638299265692614,9.869940225239723,-0.020751127984283163,0.013049756487422457,-0.09708393964218458,-8.480056424829998,54.17115860198764,-57.6875
1772746846.982041,114.2478915682421,1.4813803173041775,-9.258422451681662,-0.2507587445790476,-1.638299265692614,9.869940225239723,-0.020751127984283163,0.013049756487422457,-0.09708393964218458,-8.480056424829998,54.17115860198764,-57.6875
1772746847.0050046,114.0620321012036,1.470212695302538,-9.255310932862086,-0.23267657520108162,-1.6590675081390445,9.759571534223225,0.008697017427125541,0.015288523631899534,-0.10362892433716332,-8.480056424829998,54.17115860198764,-57.6875
1772746847.0328782,113.86927829044214,1.4702020901168042,-9.259561447673065,-0.22056525748070857,-1.7130298065145715,9.686122403250806,-0.0076632983762534145,0.014165967299610388,-0.13199052468207118,-8.480056424829998,54.17115860198764,-57.6875
1772746847.0877824,113.86927829044214,1.4702020901168042,-9.259561447673065,-0.22056525748070857,-1.7130298065145715,9.686122403250806,-0.0076632983762534145,0.014165967299610388,-0.13199052468207118,-8.480056424829998,54.17115860198764,-57.6875
1772746847.1105564,113.46478796379421,1.441221439967626,-9.258352290722412,-0.21266746914342494,-1.6653134778186633,9.72421573145952,0.014130009352370167,0.02620738681656558,-0.1189005552921137,-8.855055719846666,54.17043145894641,-56.875
1772746847.13999,113.17725947270118,1.4316755564266554,-9.279565380055185,-0.2142444893820953,-1.5599794475524438,9.74956641585206,-0.014204040420217683,0.01197161879584182,-0.13744467859455345,-8.855055719846666,54.17043145894641,-56.875
1772746847.213268,112.58986947909067,1.3781999304208583,-9.283128369346779,-0.2459880832897452,-1.5001561472993081,9.710809252986545,-0.010885020410792893,-0.012020267783284471,-0.08835729338221293,-8.10566308234769,54.48438515754276,-57.25
1772746847.2302485,112.58986947909067,1.3781999304208583,-9.283128369346779,-0.2459880832897452,-1.5001561472993081,9.710809252986545,-0.010885020410792893,-0.012020267783284471,-0.08835729338221293,-8.10566308234769,54.48438515754276,-57.25
1772746847.2511072,-14.507907130435251,1.3608896323092823,-9.280801093415777,-0.23280145449575185,-1.590557030271184,9.700503213700639,-0.016377237190315527,0.0076040735219754015,-0.04908738521234052,-8.10566308234769,54.48438515754276,-57.25
1772746847.2893782,-14.775087765435853,1.3455744905299118,-9.235603591289168,-0.24760379658159212,-1.5671355769062212,9.640122872364762,0.013066677874359032,0.012024498130018615,-0.06763150851478027,-6.979210911215226,53.73656799663311,-56.0625
1772746847.3604453,-15.047561305182336,1.2989899846159183,-9.263582084735276,-0.24725711531740813,-1.6351570377954658,9.599940429698341,-0.014176543166445748,-0.0022091547173380714,-0.11780972450961724,-6.979210911215226,53.73656799663311,-56.0625
1772746847.4073365,-15.047561305182336,1.2989899846159183,-9.263582084735276,-0.24725711531740813,-1.6351570377954658,9.599940429698341,-0.014176543166445748,-0.0022091547173380714,-0.11780972450961724,-6.979210911215226,53.73656799663311,-56.0625
1772746847.4634595,-15.589316430268912,1.2462708056700817,-9.28279901582708,-0.24698099848104169,-1.703840298098359,9.613340803458968,0.029424878504370915,0.014237883194090832,-0.12980886311707826,-6.975817577022819,51.98657128655533,-55.25
1772746847.534558,-16.237703882688567,1.1975795117164763,-9.311423776589384,-0.18683927021262364,-1.5858334974553188,9.628193298151261,0.011963158102373531,0.01856735534734996,-0.1308996938995747,-7.349968538491385,51.54834496599466,-57.25
1772746847.6140969,-16.771942817530174,1.2234822593776977,-9.327167921825792,-0.12686727471451742,-1.476844246719064,9.625452548394527,-0.012068916770727125,0.03597408124180347,-0.14180800172453928,-7.349968538491385,51.54834496599466,-57.25
1772746847.658234,-17.09692739878182,1.203918406217942,-9.331703261038076,-0.1068585695076869,-1.4913247767241018,9.623628610047602,-0.006568239297736202,0.011986425009411323,-0.1341721862470641,-5.9729108848134524,50.488513154598614,-56.875
1772746847.7011766,-17.34958169091853,1.158267773329295,-9.359011414362655,-0.07345939452740789,-1.5076127005264497,9.61572457603781,-0.01858004638755239,0.018508130493071945,-0.10471975511965978,-5.9729108848134524,50.488513154598614,-56.875
1772746847.7853155,-17.588595770718342,1.1317532509963073,-9.36018923246867,-0.044250520869933016,-1.6689689030434265,9.610464529698138,-0.006583045511305705,0.019622226131892802,-0.05890486225480862,-5.158836935688007,49.67759015865183,-55.6875
1772746847.8132823,-17.82819664500285,1.1132113968986463,-9.355463133317105,-0.02481234173538132,-1.7763496533515897,9.627034697861571,-0.023974965192189716,-0.012045649863689334,-0.09490227807719166,-5.158836935688007,49.67759015865183,-55.6875
1772746847.8511953,-18.011616256802274,1.0993015185453525,-9.350278357898976,-0.08223393210491663,-1.791079764026115,9.751795757722288,0.009815343412680545,0.0011098652920867153,-0.07744898555724837,-4.78383764067134,49.67831730169306,-56.0625
1772746847.8917644,-18.272889174006394,1.0756978474974521,-9.366555140886064,-0.12075870301626357,-1.6403174280383073,9.834822849387239,-0.008745666414568195,0.009800537199111042,-0.10690141668465268,-4.78383764067134,49.67831730169306,-56.0625
1772746847.9185612,-18.272889174006394,1.0756978474974521,-9.366555140886064,-0.12075870301626357,-1.6403174280383073,9.834822849387239,-0.008745666414568195,0.009800537199111042,-0.10690141668465268,-4.78383764067134,49.67831730169306,-56.0625
1772746847.9416568,-18.583463274217795,1.0491044721324247,-9.376212285231562,-0.14633813071507337,-1.5700927263319853,9.816483993855853,0.0010612163046440624,0.015273717418330031,-0.13308135546456762,-4.470732275623092,49.36642384171353,-56.5
1772746847.9841492,-18.93830832264847,1.0453912431399448,-9.355202975738857,-0.16342581743303772,-1.4899079176211658,9.804279690358154,0.005422416058409265,0.016373006843581384,-0.12217304763960307,-4.470732275623092,49.36642384171353,-56.5
1772746848.0360603,-18.93830832264847,1.0453912431399448,-9.355202975738857,-0.16342581743303772,-1.4899079176211658,9.804279690358154,0.005422416058409265,0.016373006843581384,-0.12217304763960307,-4.470732275623092,49.36642384171353,-56.5
1772746848.0640218,-19.398753163771143,0.9970719533168396,-9.421699929787682,-0.1780777241551969,-1.470003363666233,9.79615786271144,-0.017463835575364454,0.005420300885042193,-0.11671889372712078,-4.094157504017092,48.554652512218645,-55.25
1772746848.1230214,-20.24580841167077,0.9530023018388024,-9.205608036108401,-0.22196829635544532,-1.5538493614380793,9.797143974768604,0.02179119255525651,0.01313224824873826,-0.25634523388666713,-4.091491312865915,47.179655097157536,-55.25
1772746848.156257,-20.3914191477774,0.9416934556829011,-9.085474004097362,-0.23481340287946,-0.9706810340937242,9.761303118331885,0.045812691561521804,0.001179666013200087,-0.08835729338221293,-4.091491312865915,47.179655097157536,-55.25
1772746848.2029912,-20.3914191477774,0.9416934556829011,-9.085474004097362,-0.23481340287946,-0.9706810340937242,9.761303118331885,0.045812691561521804,0.001179666013200087,-0.08835729338221293,-4.091491312865915,47.179655097157536,-55.25
1772746848.2566628,-20.55290760224598,0.9100160804596862,-9.111631682584505,-0.1898399910834212,-0.5824852453425773,9.730761205327209,-0.024010923139429936,0.006498438576622831,-0.044724062082354694,-3.6545980878808284,47.49300284321952,-56.0625
1772746848.3231902,-20.48895464832491,0.896952536822193,-9.171962280417445,-0.15554722829264545,-0.8493203487565654,9.65691411608101,0.003274601368716278,-0.0010844832116818528,0.038179077387375956,-3.6545980878808284,47.49300284321952,-56.0625
1772746848.3842604,-20.31426634072063,0.8731026459893367,-9.064271176574861,-0.1325506467522365,-1.11721397563893,9.647911043601537,-0.0032767165420833494,0.0021753119434649213,0.009817477042468103,-4.7816562115476495,48.553319416643056,-55.25
1772746848.4689634,-20.072425316641993,0.8959070709104191,-9.041319108830322,-0.11724667862574219,-1.2954941917612497,9.641919599437356,0.015294869152000751,-0.011969503622474746,0.09817477042468103,-4.7816562115476495,48.553319416643056,-55.25
1772746848.525291,-19.69671206671003,0.9190409619949443,-8.994907645616493,-0.10371695337542773,-1.4141311977376156,9.714869929543257,0.0021731967700978493,0.004367545273866418,0.14944381720201447,-4.781050259013291,48.24082000412917,-55.25
1772746848.607,-19.170065936787637,0.9270278511723219,-8.977738218646321,-0.14824124538933992,-1.4898414758545755,9.76341755932015,0.004407733567840783,-0.02289894267397615,0.10035643198967395,-5.970729455689762,49.36351526954861,-56.0625
1772746848.6296716,-19.170065936787637,0.9270278511723219,-8.977738218646321,-0.14824124538933992,-1.4898414758545755,9.76341755932015,0.004407733567840783,-0.02289894267397615,0.10035643198967395,-5.970729455689762,49.36351526954861,-56.0625
1772746848.682438,-18.969496961839234,0.9139186958889065,-8.978210507444704,-0.17787166435566765,-1.5402258202021906,9.795725464624114,-0.005405494671472689,-0.025099636697845935,0.11562806294462433,-5.970729455689762,49.36351526954861,-56.0625
1772746848.7287207,-18.46821716083359,0.8770822250975536,-8.961533961897295,-0.19759037718429123,-1.5737560385355238,9.733598222017969,0.0065957365515081365,-0.026167198522591216,0.10690141668465268,-6.2832288682036515,49.36290931701425,-57.25
1772746848.7689788,-18.340967605710564,0.8870487393718441,-8.960518859282288,-0.13726982673708157,-1.518989900334401,9.668837454119117,-0.007604073521975402,-0.01637723719031553,0.0818123086872342,-6.2832288682036515,49.36290931701425,-57.25
1772746848.7853737,-18.093915322378965,0.8995103579370318,-8.957831002231881,-0.09713366057169667,-1.4791985417207447,9.649155668458844,0.005454143658915342,1.0575866835359344e-05,0.06544984694978735,-8.09633141331857,49.67189420482886,-56.875
1772746848.8304121,-18.093915322378965,0.8995103579370318,-8.957831002231881,-0.09713366057169667,-1.4791985417207447,9.649155668458844,0.005454143658915342,1.0575866835359344e-05,0.06544984694978735,-8.09633141331857,49.67189420482886,-56.875
1772746848.8660746,-17.86062149587059,0.9246679830523716,-8.9566671529136,-0.08380391201361848,-1.4527437823920917,9.783242575083937,0.0076548376827851265,-0.009802652372478113,0.09817477042468103,-8.09633141331857,49.67189420482886,-56.875
1772746848.9345744,-17.431827583706376,0.9753470253474809,-8.934881377192724,-0.11841948369382005,-1.4352227579008354,9.872475913594046,0.012003346396347897,-0.0021583905565283465,0.10035643198967395,-8.098634032949132,50.859391972381644,-55.6875
1772746848.975806,-17.431827583706376,0.9753470253474809,-8.934881377192724,-0.11841948369382005,-1.4352227579008354,9.872475913594046,0.012003346396347897,-0.0021583905565283465,0.10035643198967395,-8.098634032949132,50.859391972381644,-55.6875
1772746849.0273871,-17.137110233852212,1.0260745356784646,-8.936215991771112,-0.19146369659971826,-1.5106327476976862,9.93185970357082,-0.0021731967700978493,-0.004367545273866418,0.07635815477475191,-8.098634032949132,50.859391972381644,-55.6875
1772746849.0864787,-16.935008362908675,1.049587049814428,-8.978576438695425,-0.24014515398914152,-1.5240210939174703,10.028245851464394,-0.015273717418330031,0.0010612163046440624,0.032724923474893676,-8.850814052106157,51.98293557134918,-57.25
1772746849.1192837,-16.77121875874418,1.0526474796532932,-8.947121289418968,-0.27247077041642176,-1.5697270483743484,10.132531096671578,0.010937899744969691,-0.015250450511292242,0.08835729338221293,-8.850814052106157,51.98293557134918,-57.25
1772746849.1487405,-16.64982942913069,1.0512981201636815,-8.923010234614766,-0.26060340251927044,-1.5632828275658606,10.20193176241444,0.020740552117447804,-0.007595612828507114,0.05781403147231216,-9.6042059763319,53.731477995344505,-57.25
1772746849.1636996,-16.64982942913069,1.0512981201636815,-8.923010234614766,-0.26060340251927044,-1.5632828275658606,10.20193176241444,0.020740552117447804,-0.007595612828507114,0.05781403147231216,-9.6042059763319,53.731477995344505,-57.25
1772746849.2086658,-16.55755784519902,1.0515494038636737,-8.921101495458844,-0.2092648356360826,-1.5354942103509313,10.094241991673389,0.0011267866790232901,-0.018541973266945094,0.08290313946973066,-9.6042059763319,53.731477995344505,-57.25
1772746849.258592,-16.276572964834667,1.0863361673034484,-8.927283130836308,-0.13167159941493797,-1.4868109249227301,9.888771183926007,-0.01525891120476053,-0.006574584817837418,0.05126904677733343,-9.290252277735549,52.98208535784553,-57.6875
1772746849.332952,-15.918148928926433,1.1232256057490093,-8.911144633542236,-0.07879035334618938,-1.6034818934374957,9.638749709458228,0.01856100982724874,-0.008690671907024326,0.06872233929727672,-9.981386700472257,54.855748737353274,-57.6875
1772746849.4013734,-15.693262744124393,1.1398117819728146,-8.916085079155351,-0.07800145816904722,-1.6826505757096044,9.722795738294096,2.538208040486243e-05,-0.013089944781396823,0.08726646259971647,-9.981386700472257,54.855748737353274,-57.6875
1772746849.438327,-15.53950903941823,1.1656979617441774,-8.916467256348266,-0.07767753354973848,-1.6316381814111658,9.778727431628708,-0.014172312819711604,-0.004390812180904208,0.05999569303730508,-10.293886112986145,54.855142784818916,-56.5
1772746849.4954143,-15.412295844708805,1.175575513404726,-8.91487872270156,-0.0774619653340636,-1.597690002851337,9.789188455086384,-0.00650901444345819,-0.0185567794805146,0.06435901616729091,-10.293886112986145,54.855142784818916,-56.5
1772746849.5633376,-15.286030314941017,1.1854475294800406,-8.913816693027147,-0.07718878044391395,-1.6419999776189345,9.796150149340178,-0.0021753119434649213,-0.0032767165420833494,0.037088246604879506,-11.107111728563488,55.22856660324626,-57.6875
1772746849.6472933,-15.158108591779294,1.1717911875043647,-8.93067127038217,-0.13721887648703945,-1.6716045248375258,9.68035905763536,-0.005439337445345839,-0.007646376989316839,0.022907446432425576,-11.107111728563488,55.22856660324626,-57.6875
1772746849.6804845,-15.06113217439212,1.1983620096092333,-8.946192702295228,-0.17750552411537762,-1.5173605385368185,9.60330137957705,0.0010929439051501403,-0.0010887135584159967,0.04799655442984406,-12.173124255809991,57.039002957209995,-60.0625
1772746849.7134116,-14.906834165974987,1.2182942274965594,-8.9385227623274,-0.2043158380806953,-1.4147128886719218,9.552020355619911,0.0109146328379319,-0.003251334461678487,0.06872233929727672,-12.173124255809991,57.039002957209995,-60.0625
1772746849.748596,-14.851709678757114,1.2365162810082106,-8.939779902073198,-0.18523840261040603,-1.4098876776328468,9.531273853852284,0.004373890793967633,-0.005445682965447055,0.028361600344907856,-12.173124255809991,57.039002957209995,-58.875
1772746849.7711985,-14.851709678757114,1.2365162810082106,-8.939779902073198,-0.18523840261040603,-1.4098876776328468,9.531273853852284,0.004373890793967633,-0.005445682965447055,0.028361600344907856,-12.173124255809991,57.039002957209995,-58.875
1772746849.8016667,-14.76691255477382,1.2440190994614606,-8.931716342767633,-0.18590354509087748,-1.4167378151735903,9.594404857947884,0.0054668346991177735,-0.006534396523863052,0.037088246604879506,-12.173124255809991,57.039002957209995,-58.875
1772746849.8423052,-14.556195978866267,1.2526852399056503,-8.935919958188574,-0.18613214100789277,-1.5316849840016205,9.710010293515008,-0.006525935830394765,-0.009830149626250048,0.08290313946973066,-11.485625548279435,57.040336052785584,-59.25
1772746849.8858793,-14.401872392017355,1.274342919217442,-8.914253435942543,-0.18962937445574082,-1.6081875271451984,9.786944419487597,0.013100520648232182,-0.00542876157851048,0.04799655442984406,-11.485625548279435,57.040336052785584,-59.25
1772746849.9317331,-14.401872392017355,1.274342919217442,-8.914253435942543,-0.18962937445574082,-1.6081875271451984,9.786944419487597,0.013100520648232182,-0.00542876157851048,0.04799655442984406,-11.485625548279435,57.040336052785584,-59.25
1772746849.9732535,-13.980620309603012,1.228813569373452,-8.913619186225732,-0.1920670119016982,-1.6022323229006603,9.774586098472788,0.0011289018523903621,-0.01963280199872816,0.12435470920459599,-12.612198909918769,57.850653096198,-60.0625
1772746850.0042155,-13.81774742663445,1.2292662108137946,-8.896235049231908,-0.1903441269731303,-1.598262714667377,9.712839986571815,0.01747018109546567,-0.008692787080391399,0.08835729338221293,-12.612198909918769,57.850653096198,-60.0625
1772746850.0391014,-13.577885401128198,1.2348334277616513,-8.885119573525712,-0.18939215627506326,-1.4952678221718148,9.725270426168091,0.010929439051501403,-0.010887135584159966,0.08617563181722002,-13.988529420555473,58.53548561257738,-60.5
1772746850.0614154,-13.577885401128198,1.2348334277616513,-8.885119573525712,-0.18939215627506326,-1.4952678221718148,9.725270426168091,0.010929439051501403,-0.010887135584159966,0.08617563181722002,-13.988529420555473,58.53548561257738,-60.5
1772746850.0772045,-13.38899647083442,1.2548374260210984,-8.89785939477317,-0.2155194737589735,-1.4267777624046223,9.783719420472096,0.0011183259855550027,-0.01417865833981282,0.09817477042468103,-13.988529420555473,58.53548561257738,-60.5
1772746850.1143048,-13.38899647083442,1.2548374260210984,-8.89785939477317,-0.2155194737589735,-1.4267777624046223,9.783719420472096,0.0011183259855550027,-0.01417865833981282,0.09817477042468103,-13.988529420555473,58.53548561257738,-60.5
1772746850.1523461,-13.2690927321087,1.2555622869947805,-8.909582635702344,-0.2326020540541749,-1.5384183473905821,9.822616573263364,-0.019601074398222083,-0.01749133282913639,0.0545415391248228,-13.990104897144805,59.347984085113495,-60.875
1772746850.1961398,-13.123102314164566,1.2809035032920153,-8.909825482607948,-0.17706821204254503,-1.6125841829410175,9.841811970521647,-0.009800537199111042,-0.008745666414568195,0.08944812416470939,-13.990104897144805,59.347984085113495,-60.875
1772746850.2240229,-12.920077643969023,1.3106016561203164,-8.908767337222525,-0.14026024618574168,-1.585003293384029,9.854586292970398,0.006547087564065484,-0.0010781376915806372,0.05999569303730508,-13.303212142148608,59.66181659320298,-60.0625
1772746850.280848,-12.920077643969023,1.3106016561203164,-8.908767337222525,-0.14026024618574168,-1.585003293384029,9.854586292970398,0.006547087564065484,-0.0010781376915806372,0.05999569303730508,-13.303212142148608,59.66181659320298,-60.0625
1772746850.3112981,-12.723705556695485,1.325123143456317,-8.9135315091854,-0.11576495607995886,-1.566648519482577,9.74935366381265,-0.006525935830394765,-0.009830149626250048,0.08508480103472356,-13.303212142148608,59.66181659320298,-60.0625
1772746850.3730907,-12.428355551953024,1.3357738444656722,-8.895060703098757,-0.18304584528359574,-1.578011518731367,9.823162328048394,0.006559778604267915,-0.007623110082279049,0.10581058590215622,-13.303212142148608,59.66181659320298,-60.5
1772746850.4478807,-12.139274683864206,1.3420081376059447,-8.910679948339078,-0.14081535292406067,-1.602130350245834,9.728441366185745,-0.018510245666439017,-0.01748921765576932,0.10471975511965978,-13.303212142148608,59.66181659320298,-60.5
1772746850.484842,-11.350001132008352,1.3476715017550653,-8.895994729164133,-0.10852023318191975,-1.592094640789103,9.757095030402185,-0.004337932846727411,-0.013098405474865111,0.10690141668465268,-13.618620126827416,61.161207820735285,-61.25
1772746850.5256672,-11.350001132008352,1.3476715017550653,-8.895994729164133,-0.10852023318191975,-1.592094640789103,9.757095030402185,-0.004337932846727411,-0.013098405474865111,0.10690141668465268,-13.618620126827416,61.161207820735285,-61.25
1772746850.5884876,-11.110396242468653,1.3433311918471802,-8.912135916265349,-0.09798095107121677,-1.5747193237163044,9.778137445427207,0.006570354471103274,-0.013077253741194393,0.13199052468207118,-15.119950402469675,61.845797956100924,-61.25
1772746850.6487772,-10.472093999590172,1.3853801474124192,-8.91064445418044,-0.09104501254844288,-1.5230149792754697,9.792140937567181,-0.013058217180890746,-0.01638781305715089,0.15271630954950383,-15.122858974634596,63.345795136167595,-60.5
1772746850.6779504,-10.472093999590172,1.3853801474124192,-8.91064445418044,-0.09104501254844288,-1.5230149792754697,9.792140937567181,-0.013058217180890746,-0.01638781305715089,0.15271630954950383,-15.122858974634596,63.345795136167595,-60.5
1772746850.7192984,-10.10135101552599,1.4212229540939585,-8.90663985479929,-0.10623391581911593,-1.6257945557856481,9.811495440279035,-0.010887135584159966,-0.010929439051501403,0.16144295580947549,-15.122858974634596,63.345795136167595,-60.5
1772746850.7483196,-10.10135101552599,1.4212229540939585,-8.90663985479929,-0.10623391581911593,-1.6257945557856481,9.811495440279035,-0.010887135584159966,-0.010929439051501403,0.16144295580947549,-15.122858974634596,63.345795136167595,-60.5
1772746850.8061922,-9.389828243435351,1.5126871812540092,-8.88652002998056,-0.12664970349696897,-1.5537182472440365,9.824375645629813,0.006551317910799627,-0.0032597951551467746,0.12326387842209953,-15.500039698774954,64.47006587817637,-62.5
1772746850.8559234,-8.99170274081037,1.5523258023054831,-8.861251937317977,-0.14023618213728875,-1.5057522690547158,9.819566831580156,0.013111096515067542,-0.010882905237425822,0.10471975511965978,-15.500039698774954,64.47006587817637,-62.5
1772746850.89613,-8.59145734053826,1.5698067070183128,-8.847460727023064,-0.14927783190151067,-1.4738314463848072,9.816366619548083,-0.002149929863060059,-0.01636666132348017,0.12326387842209953,-15.501372794350543,65.15756458570692,-63.25
1772746850.9185975,-8.303618948309373,1.5780769514015203,-8.842502711393127,-0.1553338668129564,-1.4325178629649884,9.871103813213878,-0.005420300885042193,-0.017463835575364454,0.12217304763960307,-15.501372794350543,65.15756458570692,-63.25
1772746850.9639742,-8.303618948309373,1.5780769514015203,-8.842502711393127,-0.1553338668129564,-1.4325178629649884,9.871103813213878,-0.005420300885042193,-0.017463835575364454,0.12217304763960307,-15.501372794350543,65.15756458570692,-63.25
1772746850.983983,-7.972887244155965,1.576176939482885,-8.829197275582441,-0.1259130362096004,-1.4049592713767283,9.907530804143947,0.005477410565953133,-0.011988540182778394,0.11453723216212788,-14.816176706450548,66.3463954488353,-62.5
1772746851.0463545,-7.628948735803535,1.5881828165207699,-8.830114921740979,-0.11642749534405596,-1.356532846754059,9.794622979691663,-0.006517475136926477,-0.014193464553382322,0.136353847812057,-14.816176706450548,66.3463954488353,-62.5
1772746851.0683563,-7.265577565783166,1.6167138735859476,-8.818307796148932,-0.11011497385847044,-1.3243056021262805,9.719484083781708,0.0054689498724848455,-0.007625225255646121,0.11344640137963143,-15.127948975923207,65.97079020128426,-64.5
1772746851.111087,-7.048818644151351,1.6338526337918258,-8.808256354827558,-0.11929448299993087,-1.3028846761585395,9.679515323032057,-0.006502668923356974,-0.0218292656758638,0.13526301702956053,-15.127948975923207,65.97079020128426,-64.5
1772746851.1318421,-6.922456866966646,1.6370207255218523,-8.79912246444901,-0.12544226178693868,-1.2685586567024811,9.703093234843266,-0.007604073521975402,-0.01637723719031553,0.12871803233458182,-15.127948975923207,65.97079020128426,-64.5
1772746851.1711345,-6.599808334114603,1.6477995842707702,-8.793534247334206,-0.10914507708840686,-1.409586321720279,9.718784071771093,0.0011098652920867153,-0.009815343412680545,0.14508049407202864,-14.818115754560495,67.34639356887973,-65.25
1772746851.218455,-6.3396362297723385,1.6471899236683167,-8.781697693965892,-0.09843569570622199,-1.4331914436155626,9.672359249444,0.010956936305273338,-0.025067909097339858,0.15926129424448257,-14.818115754560495,67.34639356887973,-65.25
1772746851.2545543,125.92000553360631,3.9673728949044818,-0.9421119819747064,-0.12792326432230325,-1.5426346899306804,9.641464048784565,0.004380236314068849,-0.008718169160796261,0.10144726277217041,-15.133523739239305,68.84578479641205,-64.5
1772746851.2941904,-5.7438980191716205,1.6725495016083707,-8.757785450263198,-0.1577638454054969,-1.5218244550673996,9.634284084696993,0.0032915227556528526,-0.009811113065946401,0.13744467859455345,-15.133523739239305,68.84578479641205,-64.5
1772746851.3298273,-5.434412020486337,1.6685683854896542,-8.745021761115451,-0.17762890510776372,-1.5046303708127833,9.629505898802169,-0.0010527556111757748,-0.019637032345462307,0.1505346479845109,-15.88352232927264,68.84433051032958,-65.6875
1772746851.3585188,-5.434412020486337,1.6685683854896542,-8.745021761115451,-0.17762890510776372,-1.5046303708127833,9.629505898802169,-0.0010527556111757748,-0.019637032345462307,0.1505346479845109,-15.88352232927264,68.84433051032958,-65.6875
1772746851.390895,-4.979562070285227,1.6886844416887299,-8.751655341935969,-0.1629259056525636,-1.4587881958966007,9.733349617747068,-0.006515359963559405,-0.01528429328516539,0.16035212502697901,-15.88352232927264,68.84433051032958,-65.6875
1772746851.4054284,-4.979562070285227,1.6886844416887299,-8.751655341935969,-0.1629259056525636,-1.4587881958966007,9.733349617747068,-0.006515359963559405,-0.01528429328516539,0.16035212502697901,-15.88352232927264,68.84433051032958,-65.6875
1772746851.418879,-4.756316225891268,1.7054997845670117,-8.755525561149577,-0.1410007695047024,-1.42246134348147,9.728884021485673,-0.003268255848615062,-0.0021880029836673525,0.1265363707695889,-15.135705168362994,69.97078268146205,-66.0625
1772746851.4350367,-4.756316225891268,1.7054997845670117,-8.755525561149577,-0.1410007695047024,-1.42246134348147,9.728884021485673,-0.003268255848615062,-0.0021880029836673525,0.1265363707695889,-15.135705168362994,69.97078268146205,-66.0625
1772746851.4658344,-4.5896110363224665,1.7241121990967452,-8.781197056653276,-0.1429991504282032,-1.4685658744512182,9.679080653155221,-0.015250450511292242,-0.010937899744969691,0.14835298641951802,-15.135705168362994,69.97078268146205,-66.0625
1772746851.512735,-4.160888155229251,1.7218931496454104,-8.773058808210592,-0.11426201983669476,-1.4791189152854782,9.645937067871383,-0.003236528248108984,-0.018550433960413382,0.136353847812057,-15.512037558955251,70.65755424595137,-66.875
1772746851.5349584,-3.7891739345888626,1.7219631837196998,-8.780894470593646,-0.11517598129210854,-1.50290629116398,9.623880382103096,0.008754127108036481,-0.014163852126243317,0.13308135546456762,-15.512037558955251,70.65755424595137,-66.875
1772746851.569002,-3.502672234174126,1.744317128306849,-8.76226924709518,-0.11578421243106797,-1.5187365240887234,9.625927462650221,0.009840725493085407,-0.011980079489310106,0.11344640137963143,-15.137038263938583,70.6582813889926,-66.875
1772746851.6595104,-3.1364694623889693,1.7307430623641034,-8.741817897962058,-0.11609817480418752,-1.5761028431260644,9.587148431399113,-0.007604073521975402,-0.01637723719031553,0.1189005552921137,-15.137038263938583,70.6582813889926,-66.875
1772746851.7027404,-2.738050708889272,1.754107985841257,-8.735316255472098,-0.12629053885201413,-1.6410597899685078,9.561341419291663,0.01639204340388503,-0.015239874644456882,0.1407171709420428,-14.829022900178947,72.97138299412975,-67.25
1772746851.7288182,-2.5366997775700515,1.7834669544037556,-8.732380546084443,-0.13312533392994524,-1.6575270691262487,9.54416714101737,0.0032957531023869962,-0.011992770529512538,0.08072147790473774,-14.829022900178947,72.97138299412975,-67.25
1772746851.7497842,-2.466860704991609,1.7889791339415397,-8.72444043983796,-0.13762192304437557,-1.6952467028034286,9.532737850675087,0.0032894075822857806,-0.008720284334163332,0.061086523819801536,-14.829022900178947,72.97138299412975,-67.25
1772746851.7695382,-2.466860704991609,1.7889791339415397,-8.72444043983796,-0.13762192304437557,-1.6952467028034286,9.532737850675087,0.0032894075822857806,-0.008720284334163332,0.061086523819801536,-14.829022900178947,72.97138299412975,-67.25
1772746851.8272557,-2.096513194312095,1.8102064687311057,-8.71853505931736,-0.1317873516683133,-1.569918757716711,9.516843122523696,0.004384466660802992,-0.010899826624362398,0.0916297857297023,-14.391523722659501,72.97223132767785,-68.875
1772746851.8658397,-1.844638984182295,1.822461622566323,-8.70725837237906,-0.14359036627869146,-1.5499845819893017,9.52458935671879,4.230346734143738e-05,-0.02181657463566137,0.11344640137963143,-14.392250865700733,73.34723062269452,-70.5
1772746851.896375,-1.5211104549725787,1.819390737726872,-8.673636317616793,-0.15144514065358583,-1.5367186107220443,9.566540617825034,-0.0021456995163259152,-0.01854831878704631,0.1439896632895322,-14.392250865700733,73.34723062269452,-70.5
1772746851.9555197,-1.1514838438059811,1.8473964843140742,-8.675050530474595,-0.15661402826369633,-1.5579962038022155,9.594458713464945,-0.005437222271978767,-0.008737205721099907,0.09817477042468103,-13.019192498749565,74.34989493389014,-71.25
1772746852.0344596,-0.7729847412693208,1.8550387016082701,-8.661503432114257,-0.08311644059883175,-1.5720070186625072,9.68997546351609,0.0065915062047739925,-0.023985541059025076,0.1308996938995747,-13.019192498749565,74.34989493389014,-71.25
1772746852.118327,-0.056706601287012666,1.8461423126281915,-8.656868995676165,-0.16007845662124182,-1.4707641671150018,9.78915258742337,0.006555548257533771,-0.005441452618712911,0.12435470920459599,-14.3970984859756,75.84722592280563,-72.0625
1772746852.1609046,-0.056706601287012666,1.8461423126281915,-8.656868995676165,-0.16007845662124182,-1.4707641671150018,9.78915258742337,0.006555548257533771,-0.005441452618712911,0.12435470920459599,-14.3970984859756,75.84722592280563,-72.0625
1772746852.1957257,0.14604033209906314,1.8544679908380817,-8.66057491763841,-0.20272769026228699,-1.3971034046785105,9.812851838347706,-0.00216262090326249,-0.00982168893278176,0.10362892433716332,-13.333267387852787,75.1617874538919,-72.875
1772746852.236646,0.40881900689871054,1.9024332097766499,-8.670147321865525,-0.23439052092056784,-1.381540530640771,9.90890610607554,0.004373890793967633,-0.005445682965447055,0.055632369907319255,-13.333267387852787,75.1617874538919,-72.875
1772746852.2602627,0.5572129524428238,1.8856690589539067,-8.681698538868885,-0.2552347593879826,-1.4882623014703815,9.972829148251936,-0.006517475136926477,-0.014193464553382322,0.06763150851478027,-13.647099895942265,75.8486802088881,-74.0625
1772746852.2968411,0.5572129524428238,1.8856690589539067,-8.681698538868885,-0.2552347593879826,-1.4882623014703815,9.972829148251936,-0.006517475136926477,-0.014193464553382322,0.06763150851478027,-13.647099895942265,75.8486802088881,-74.0625
1772746852.3478076,0.8311243570852407,1.8852943676546652,-8.663243197590267,-0.24576197896991048,-1.5224428838642194,10.00867899533852,-0.0010760225182135654,-0.007637916295848552,0.07635815477475191,-13.647099895942265,75.8486802088881,-74.0625
