timestamp,yaw,pitch,roll,ax,ay,az,gx,gy,gz,mx,my,mz
1772312468.2952096,-0.0943723720846883,1.5989268530635914,-6.7552246488921135,-0.2725569859461701,-1.1525968514379048,9.771382202261146,0.0,0.003272492347489368,0.0,7.5,-5.875,-64.0
1772312468.6029701,156.7506192384798,1.5980351663814198,-6.759164988973707,-0.270501523653612,-1.158547956776745,9.76928520306654,-0.001090830782496456,-0.001090830782496456,-0.001090830782496456,7.5,-5.5625,-64.0
1772312468.8280838,156.92246711297352,1.6013081025391989,-6.75539530838756,-0.25744150291726775,-1.144063034322415,9.776596922364863,0.001090830782496456,-0.002181661564992912,0.001090830782496456,7.75,-5.5625,-64.0
1772312468.850361,156.92246711297352,1.6013081025391989,-6.75539530838756,-0.25744150291726775,-1.144063034322415,9.776596922364863,0.001090830782496456,-0.002181661564992912,0.001090830782496456,7.75,-5.5625,-64.0
1772312468.8783498,156.76730482674267,1.59898236996753,-6.759192130400937,-0.2549522370644074,-1.1427039039545,9.781080401556004,0.0,-0.001090830782496456,0.0,7.75,-5.5625,-64.0
1772312468.8959703,156.76730482674267,1.59898236996753,-6.759192130400937,-0.2566407701535698,-1.145144529584453,9.784064106873965,0.0,-0.002181661564992912,0.002181661564992912,7.0625,-4.75,-63.5625
1772312468.911637,156.76730482674267,1.59898236996753,-6.759192130400937,-0.2566407701535698,-1.145144529584453,9.784064106873965,0.0,-0.002181661564992912,0.002181661564992912,7.0625,-4.75,-63.5625
1772312468.9403434,156.76730482674267,1.59898236996753,-6.759192130400937,-0.25776447006225683,-1.1501138503849313,9.782704617725575,-0.001090830782496456,0.0,-0.001090830782496456,7.0625,-4.75,-63.5625
1772312469.0025146,156.75690606752937,1.5984195140417667,-6.758987721452159,-0.2585122797989376,-1.153420877866699,9.78514500459113,0.001090830782496456,0.0,-0.001090830782496456,7.0625,-4.75,-62.0
1772312469.0479555,156.7087910000603,1.595550574018397,-6.759846916409174,-0.2590099388251165,-1.155621667713898,9.786769054789248,0.0,0.004363323129985824,-0.002181661564992912,7.0625,-4.75,-62.0
1772312469.1096392,-0.09458753399887854,1.6016944957977133,-6.754893355924164,-0.2150464719077626,1.1668794742563253,9.787849842054268,0.0010023757411087358,0.0004302960256364723,0.001090830782496456,-9.31577454473659,2.0543249211451022,-63.1875
1772312469.1587067,-0.09458753399887854,1.6016944957977133,-6.754893355924164,-0.2150464719077626,1.1668794742563253,9.787849842054268,0.0010023757411087358,0.0004302960256364723,0.001090830782496456,-9.31577454473659,2.0543249211451022,-63.1875
1772312469.2213812,0.05510757236195872,1.602284734966543,-6.758362194882818,-0.21186326786488274,1.1656663317914013,9.788569093905954,0.0005720797154722635,0.001432671766745208,0.001090830782496456,-9.31577454473659,2.0543249211451022,-63.1875
1772312469.255366,0.07746095465274053,1.5967040637695031,-6.756492581961628,-0.2097448811330653,1.1648589990326836,9.785702636271361,0.0022932638180181526,-0.002576831197689735,-0.002181661564992912,-9.209317677980389,2.4401010032451373,-63.1875
1772312469.295525,0.0706203390316243,1.5962808267997979,-6.7565051571486645,-0.20833511842697114,1.164321728100255,9.78379504073597,0.002865343533490416,-0.0011441594309445269,0.0,-9.209317677980389,2.4401010032451373,-63.1875
1772312469.320008,0.0706203390316243,1.5962808267997979,-6.7565051571486645,-0.20833511842697114,1.164321728100255,9.78379504073597,0.002865343533490416,-0.0011441594309445269,0.0,-9.209317677980389,2.4401010032451373,-63.1875
1772312469.3417828,0.0706203390316243,1.5962808267997979,-6.7565051571486645,-0.20833511842697114,1.164321728100255,9.78379504073597,0.002865343533490416,-0.0011441594309445269,0.0,-9.209317677980389,2.4401010032451373,-63.1875
1772312469.3768108,0.12675443084266072,1.5996540124958525,-6.755979688965542,-0.21047079500182517,1.1626446463264848,9.789215780631045,0.002435047507853944,-0.00014178368983579112,-0.001090830782496456,-9.127798282550486,3.3592947195904697,-63.0625
1772312469.407514,0.27785107720240165,1.6002388398425116,-6.759026526560687,-0.21189206390531998,1.1615285671402715,9.792823222477585,0.0,0.0,-0.002181661564992912,-9.127798282550486,3.3592947195904697,-63.0625
1772312469.5121663,0.27785107720240165,1.6002388398425116,-6.759026526560687,-0.21189206390531998,1.1615285671402715,9.792823222477585,0.0,0.0,-0.002181661564992912,-9.127798282550486,3.3592947195904697,-63.0625
1772312469.5580478,0.3052244377186725,1.6019325244403317,-6.758972034896436,-0.2097640445763034,1.1621053628792164,9.795223934728691,0.0005720797154722635,0.001432671766745208,0.0,-9.209317677980389,2.4401010032451373,-62.75
1772312469.6349628,0.29838084762090183,1.6015090904078002,-6.758985734200565,-0.20740542411138893,1.1627446626334061,9.78451617143282,0.0005720797154722635,0.001432671766745208,0.0,-9.16784966747525,1.7097335244341305,-62.75
1772312469.6997945,0.29838084762090183,1.6015090904078002,-6.758985734200565,-0.20740542411138893,1.1627446626334061,9.78451617143282,0.0005720797154722635,0.001432671766745208,0.0,-9.16784966747525,1.7097335244341305,-62.75
1772312469.7233853,0.11991302901513894,1.5992307649362336,-6.755992629089084,-0.20943470707995704,1.1617082587862306,9.782000101147947,0.0020047514822174716,0.0008605920512729446,-0.001090830782496456,-9.16784966747525,1.7097335244341305,-62.75
1772312469.7422879,0.11991302901513894,1.5992307649362336,-6.755992629089084,-0.20943470707995704,1.1617082587862306,9.782000101147947,0.0020047514822174716,0.0008605920512729446,-0.001090830782496456,-9.16784966747525,1.7097335244341305,-62.75
1772312469.7579432,0.12675443084266072,1.5996540124958525,-6.755979688965542,-0.2094482350294472,1.1652988035699936,9.781331044971365,-0.0018629677923816803,0.0015744554565809991,0.0,-8.018928353322604,1.7268307138451204,-63.1875
1772312469.7792683,0.12675443084266072,1.5996540124958525,-6.755979688965542,-0.21253109563639427,1.1663687370446258,9.777540683852378,0.0010023757411087358,0.0004302960256364723,0.001090830782496456,-8.018928353322604,1.7268307138451204,-63.1875
1772312469.8317919,0.11991302901513894,1.5992307649362336,-6.755992629089084,-0.21326317096255967,1.1640069079123754,9.768328017454161,-0.00028851233580068114,0.0034374232489626797,0.0,-8.363519750033575,1.578905836583783,-62.375
1772312469.8494143,0.1774519037177172,1.6025903389579725,-6.7550408280753125,-0.21243082494435694,1.1593612791005443,9.762197090878374,0.0005720797154722635,0.001432671766745208,0.0,-8.363519750033575,1.578905836583783,-62.375
1772312469.8776658,0.1774519037177172,1.6025903389579725,-6.7550408280753125,-0.20880305005947888,1.1575891989912934,9.764807251143763,-0.001290888076909417,0.0030071272233262074,-0.001090830782496456,-8.363519750033575,1.578905836583783,-62.375
1772312469.9129505,0.1774519037177172,1.6025903389579725,-6.7550408280753125,-0.20880305005947888,1.1575891989912934,9.764807251143763,-0.001290888076909417,0.0030071272233262074,-0.001090830782496456,-8.363519750033575,1.578905836583783,-62.375
1772312469.9419513,-0.11652148418216221,1.6004369732908414,-6.755353366904832,-0.20638880639849336,1.1564098994740188,9.766544283642979,0.0004302960256364723,-0.0010023757411087358,-0.002181661564992912,-10.143908633040262,0.8146273040668718,-64.0
1772312469.983667,-0.11652148418216221,1.6004369732908414,-6.755353366904832,-0.20917554608860317,1.1573794127566415,9.767700259367283,-0.001432671766745208,0.0005720797154722634,0.0,-10.143908633040262,0.8146273040668718,-64.0
1772312470.0245101,-0.25938936621563496,1.5988520791978837,-6.758706358280771,-0.2097105562525007,1.1549507551083753,9.771814660006031,0.0004302960256364723,-0.0010023757411087358,0.0,-9.569872963638051,1.53715450096257,-63.1875
1772312470.053701,-0.25938936621563496,1.5988520791978837,-6.758706358280771,-0.2097105562525007,1.1549507551083753,9.771814660006031,0.0004302960256364723,-0.0010023757411087358,0.0,-9.569872963638051,1.53715450096257,-63.1875
1772312470.0771205,-0.14529471932445323,1.5987559460687437,-6.755824851136202,-0.2113861335100679,1.1564083684810162,9.774552747670253,0.0010023757411087358,0.0004302960256364723,0.0,-9.569872963638051,1.53715450096257,-63.1875
1772312470.1288593,-0.14529471932445323,1.5987559460687437,-6.755824851136202,-0.21250121145755446,1.1573783938979003,9.776374914424348,0.0034374232489626797,0.00028851233580068125,0.0,-8.536098773505136,1.980929132746583,-62.375
1772312470.1675968,-0.08774881917140533,1.6021177281310444,-6.754881047807411,-0.21324328337536988,1.158023934976943,9.780932657751583,0.001432671766745208,-0.0005720797154722634,0.002181661564992912,-8.536098773505136,1.980929132746583,-62.375
1772312470.244009,-0.08090993509869186,1.60254096937392,-6.75486868884848,-0.2137371239471896,1.1584535353538794,9.783965785022529,0.0004302960256364723,-0.0010023757411087358,-0.002181661564992912,-9.357242555241728,2.784692399956109,-63.1875
1772312470.2771282,-0.08774881917140533,1.6021177281310444,-6.754881047807411,-0.2153853033011234,1.1618132875134584,9.785984297339091,0.0004302960256364723,-0.0010023757411087358,0.0,-9.357242555241728,2.784692399956109,-63.1875
1772312470.3154404,-0.17264624919889265,1.5970629507221483,-6.7558720795761955,-0.21648214824979667,1.1640491650447673,9.780637371322864,0.002435047507853944,-0.00014178368983579112,0.0,-8.995270644003691,1.3077102282713304,-63.5625
1772312470.3317757,-0.17264624919889265,1.5970629507221483,-6.7558720795761955,-0.21648214824979667,1.1640491650447673,9.780637371322864,0.002435047507853944,-0.00014178368983579112,0.0,-8.995270644003691,1.3077102282713304,-63.5625
1772312470.3641403,-0.2237785607150164,1.600957697488457,-6.758224810443261,-0.21589255234062937,1.1624632586577865,9.777079051788142,0.0004302960256364723,-0.0010023757411087358,0.0,-8.995270644003691,1.3077102282713304,-63.5625
1772312470.4139454,-0.2237785607150164,1.600957697488457,-6.758224810443261,-0.21550018284929637,1.161407855672986,9.784746365008777,0.00028356737967158245,0.004870095015707888,0.0,-9.086046946929274,2.152941505985994,-63.1875
1772312470.445284,-0.2237785607150164,1.600957697488457,-6.758224810443261,-0.21550018284929637,1.161407855672986,9.784746365008777,0.00028356737967158245,0.004870095015707888,0.0,-9.086046946929274,2.152941505985994,-63.1875
1772312470.5159476,-0.5094960426134931,1.5992079211468087,-6.758091553310596,-0.2172629636343451,1.1653575607842892,9.783209205456236,-0.0010023757411087358,-0.0004302960256364723,0.0,-9.39729394016649,1.13513120479977,-64.375
1772312470.6054811,-0.5094960426134931,1.5992079211468087,-6.758091553310596,-0.21641217625676695,1.1633339814067003,9.778790578674633,-0.0010023757411087358,-0.0004302960256364723,0.0,-9.39729394016649,1.13513120479977,-64.375
1772312470.6461005,-0.5094960426134931,1.5992079211468087,-6.758091553310596,-0.21641217625676695,1.1633339814067003,9.778790578674633,-0.0010023757411087358,-0.0004302960256364723,0.0,-9.39729394016649,1.13513120479977,-64.375
1772312470.7143126,-0.5026625425500323,1.5996313535684539,-6.758080966938318,-0.21584598676090647,1.1619873119357778,9.77585003191077,-0.0005720797154722635,-0.001432671766745208,0.0,-9.086046946929274,2.152941505985994,-62.75
1772312470.7532628,-0.545105292463066,1.5971011972692035,-6.758567294470292,-0.21678872794611087,1.1641649763538406,9.777238242594798,0.0004302960256364723,-0.0010023757411087358,0.001090830782496456,-9.086046946929274,2.152941505985994,-62.75
1772312470.815599,-0.545105292463066,1.5971011972692035,-6.758567294470292,-0.21126839585839838,1.168253255637853,9.77481696959037,-0.0005720797154722635,-0.001432671766745208,0.0,-8.536098773505136,1.980929132746583,-63.1875
1772312470.8405273,-0.545105292463066,1.5971011972692035,-6.758567294470292,-0.21126839585839838,1.168253255637853,9.77481696959037,-0.0005720797154722635,-0.001432671766745208,0.0,-8.536098773505136,1.980929132746583,-63.1875
1772312470.8540654,-0.4807203403769657,1.6008909419895565,-6.757625298168653,-0.20759467652017566,1.1709739598322912,9.776550751160634,0.0008605920512729446,-0.0020047514822174716,0.001090830782496456,-8.536098773505136,1.980929132746583,-63.1875
1772312470.9165316,-0.46705256824248487,1.6017377888719704,-6.75760364954493,-0.20514985733872246,1.172784558081433,9.774359451720716,0.0,0.0,-0.002181661564992912,-8.684023650766473,2.3255205294575547,-63.1875
1772312470.9562824,-0.43101884126920337,1.5970120715058695,-6.755687348362406,-0.21142489723697183,1.1669570311730049,9.77624627812919,-0.0004302960256364723,0.0010023757411087358,0.001090830782496456,-8.684023650766473,2.3255205294575547,-63.1875
1772312470.9790287,-0.43101884126920337,1.5970120715058695,-6.755687348362406,-0.21142489723697183,1.1669570311730049,9.77624627812919,-0.0004302960256364723,0.0010023757411087358,0.001090830782496456,-8.684023650766473,2.3255205294575547,-63.1875
1772312471.0426238,-0.3954083892388201,1.5991174721977586,-6.755209517795496,-0.2132604508757255,1.1626956779949866,9.776111434519116,-0.0010023757411087358,-0.0004302960256364723,0.002181661564992912,-8.536098773505136,1.980929132746583,-61.5625
1772312471.0728385,-0.3954083892388201,1.5991174721977586,-6.755209517795496,-0.21242901475695422,1.15848867023792,9.777412203110593,-0.0004302960256364723,0.0010023757411087358,-0.003272492347489368,-8.536098773505136,1.980929132746583,-61.5625
1772312471.122602,-0.4159126388012155,1.597847753552582,-6.755242330224275,-0.2088018453999835,1.1570084875408968,9.778277850077686,0.0,0.0,-0.002181661564992912,-9.31577454473659,2.0543249211451022,-63.5625
1772312471.1694183,-0.4159126388012155,1.597847753552582,-6.755242330224275,-0.2088018453999835,1.1570084875408968,9.778277850077686,0.0,0.0,-0.002181661564992912,-9.31577454473659,2.0543249211451022,-63.5625
1772312471.1942673,-0.32419825498479343,1.601896667079496,-6.761085837348432,-0.20770753868100456,1.1590973003984302,9.775508816757055,-0.001432671766745208,0.0005720797154722634,0.0,-9.31577454473659,2.0543249211451022,-63.5625
1772312471.245281,-0.3086720146946972,1.595899292592953,-6.759208879537473,-0.20829882375367956,1.1635612399292286,9.773666056014305,0.0005720797154722635,0.001432671766745208,-0.001090830782496456,-8.684023650766473,2.3255205294575547,-64.0
1772312471.2949939,-0.33103406007249786,1.6014730397697494,-6.761097181179929,-0.20869231736445773,1.166531941821503,9.765749495910352,-0.0018629677923816803,0.0015744554565809991,0.002181661564992912,-8.684023650766473,2.3255205294575547,-64.0
1772312471.3277392,-0.29499996732887923,1.5967461710180673,-6.759186594304752,-0.2151018987821758,1.165869842806,9.763826225302262,-0.0004302960256364723,0.0010023757411087358,0.0,-8.191507376794165,2.1288540100079207,-62.375
1772312471.3702173,-0.3086720146946972,1.595899292592953,-6.759208879537473,-0.21365447776837593,1.1606010414619052,9.762546310196917,0.0,0.0,-0.001090830782496456,-8.191507376794165,2.1288540100079207,-62.375
1772312471.4259,-0.3086720146946972,1.595899292592953,-6.759208879537473,-0.21365447776837593,1.1606010414619052,9.762546310196917,0.0,0.0,-0.001090830782496456,-8.191507376794165,2.1288540100079207,-62.375
1772312471.451427,-0.3086720146946972,1.595899292592953,-6.759208879537473,-0.21137170128249577,1.154020855116099,9.76838476440654,-0.0010023757411087358,-0.0004302960256364723,-0.002181661564992912,-9.086046946929274,2.152941505985994,-63.5625
1772312471.4783018,-0.29499996732887923,1.5967461710180673,-6.759186594304752,-0.20677868112374828,1.1509613485784114,9.772270190463235,-0.0015744554565809993,-0.0018629677923816803,0.001090830782496456,-9.086046946929274,2.152941505985994,-63.5625
1772312471.5223289,-0.3871382365811439,1.5995296653962978,-6.754775076583766,-0.20504161148544736,1.1519991390621862,9.774855898100913,-0.0008605920512729446,0.0020047514822174716,0.0,-9.717797840899388,1.8817458976735417,-62.75
1772312471.5383043,-0.45194516250239475,1.602573695698198,-6.757158206233007,-0.20827900292312423,1.1544441009739888,9.773231545942222,0.0010023757411087358,0.0004302960256364723,-0.001090830782496456,-9.717797840899388,1.8817458976735417,-62.75
1772312471.5547185,-0.45194516250239475,1.602573695698198,-6.757158206233007,-0.20827900292312423,1.1544441009739888,9.773231545942222,0.0010023757411087358,0.0004302960256364723,-0.001090830782496456,-9.717797840899388,1.8817458976735417,-62.75
1772312471.5865507,-0.45194516250239475,1.602573695698198,-6.757158206233007,-0.2117529847308148,1.1591450537219579,9.772150557725816,-0.0004302960256364723,0.0010023757411087358,-0.001090830782496456,-9.717797840899388,1.8817458976735417,-62.75
1772312471.6356866,-0.45194516250239475,1.602573695698198,-6.757158206233007,-0.2117529847308148,1.1591450537219579,9.772150557725816,-0.0004302960256364723,0.0010023757411087358,-0.001090830782496456,-9.717797840899388,1.8817458976735417,-62.75
1772312471.6731522,-0.495828870432452,1.6000547952938708,-6.758070329776562,-0.21713873872459172,1.1609539512926996,9.771431172143226,0.0,0.0,0.001090830782496456,-8.536098773505136,1.980929132746583,-63.5625
1772312471.7066414,-0.495828870432452,1.6000547952938708,-6.758070329776562,-0.21764903993695772,1.1634772863892668,9.770952429074077,0.0005720797154722635,0.001432671766745208,0.0,-8.536098773505136,1.980929132746583,-63.5625
1772312471.7230625,-0.495828870432452,1.6000547952938708,-6.758070329776562,-0.21666910572340073,1.1620826798008541,9.770633830909468,0.0,0.0,0.001090830782496456,-8.536098773505136,1.980929132746583,-63.5625
1772312471.7406776,-0.495828870432452,1.6000547952938708,-6.758070329776562,-0.21666910572340073,1.1620826798008541,9.770633830909468,0.0,0.0,0.001090830782496456,-8.536098773505136,1.980929132746583,-63.5625
1772312471.7792432,-0.495828870432452,1.6000547952938708,-6.758070329776562,-0.21558298171181417,1.1605369477696255,9.770280708106078,-0.0018629677923816803,0.0015744554565809991,0.0,-8.938122069667937,1.8083501092750225,-63.1875
1772312471.8386939,-0.495828870432452,1.6000547952938708,-6.758070329776562,-0.21529416705395032,1.1601259172952172,9.76684169640156,-0.0004302960256364723,0.0010023757411087358,0.001090830782496456,-9.31577454473659,2.0543249211451022,-63.1875
1772312471.857075,-0.495828870432452,1.6000547952938708,-6.758070329776562,-0.21529416705395032,1.1601259172952172,9.76684169640156,-0.0004302960256364723,0.0010023757411087358,0.001090830782496456,-9.31577454473659,2.0543249211451022,-63.1875
1772312471.8971963,-0.495828870432452,1.6000547952938708,-6.758070329776562,-0.21774103206531,1.1660000969213666,9.7678981842358,-0.0008605920512729446,0.0020047514822174716,0.0,-9.31577454473659,2.0543249211451022,-63.1875
1772312471.9141836,-0.495828870432452,1.6000547952938708,-6.758070329776562,-0.21936939339709674,1.1699092978436831,9.768601265087746,0.001144159430944527,0.002865343533490416,0.0,-7.9374089578927025,2.6460244301904527,-62.75
1772312471.9495432,-0.495828870432452,1.6000547952938708,-6.758070329776562,-0.21936939339709674,1.1699092978436831,9.768601265087746,0.001144159430944527,0.002865343533490416,0.0,-7.9374089578927025,2.6460244301904527,-62.75
1772312471.9872754,-0.495828870432452,1.6000547952938708,-6.758070329776562,-0.21913351570346437,1.1694369694811706,9.775759380955426,0.00014178368983579123,0.002435047507853944,0.002181661564992912,-7.9374089578927025,2.6460244301904527,-62.75
1772312472.0206842,-0.495828870432452,1.6000547952938708,-6.758070329776562,-0.22073086567100852,1.1647292483545455,9.780523027103975,-0.001432671766745208,0.0005720797154722634,0.001090830782496456,-7.9374089578927025,2.6460244301904527,-63.5625
1772312472.0435286,-0.495828870432452,1.6000547952938708,-6.758070329776562,-0.22003956029311086,1.1659897044110938,9.78369318040242,0.0010023757411087358,0.0004302960256364723,-0.001090830782496456,-7.9374089578927025,2.6460244301904527,-63.5625
1772312472.0684187,-0.495828870432452,1.6000547952938708,-6.758070329776562,-0.21957950428650702,1.16682852383651,9.785802882009602,-0.0005720797154722635,-0.001432671766745208,0.0,-7.9374089578927025,2.6460244301904527,-63.5625
1772312472.083031,-0.495828870432452,1.6000547952938708,-6.758070329776562,-0.21957950428650702,1.16682852383651,9.785802882009602,-0.0005720797154722635,-0.001432671766745208,0.0,-7.9374089578927025,2.6460244301904527,-63.5625
1772312472.096793,-0.495828870432452,1.6000547952938708,-6.758070329776562,-0.220592876123223,1.1704606067015761,9.78720686486227,-0.0005720797154722635,-0.001432671766745208,0.0,-8.018928353322604,1.7268307138451204,-63.5625
1772312472.1165385,-0.495828870432452,1.6000547952938708,-6.758070329776562,-0.21994772979050392,1.169803859367575,9.788141199767205,0.001290888076909417,-0.0030071272233262074,-0.002181661564992912,-8.018928353322604,1.7268307138451204,-63.5625
1772312472.1291091,-0.495828870432452,1.6000547952938708,-6.758070329776562,-0.21994772979050392,1.169803859367575,9.788141199767205,0.001290888076909417,-0.0030071272233262074,-0.002181661564992912,-8.018928353322604,1.7268307138451204,-63.5625
1772312472.149117,-0.495828870432452,1.6000547952938708,-6.758070329776562,-0.223911783990463,1.1711211252908758,9.782072765794595,0.001432671766745208,-0.0005720797154722634,-0.001090830782496456,-8.018928353322604,1.7268307138451204,-63.5625
1772312472.1681526,-0.495828870432452,1.6000547952938708,-6.758070329776562,-0.2252302838092004,1.1689238931403294,9.778034290774672,-0.002435047507853944,0.00014178368983579112,-0.002181661564992912,-9.258625970400836,2.5549648021487945,-63.1875
1772312472.2019238,-0.495828870432452,1.6000547952938708,-6.758070329776562,-0.22171433883233518,1.165707335751102,9.775346730761635,0.0010023757411087358,0.0004302960256364723,0.0,-9.258625970400836,2.5549648021487945,-63.1875
1772312472.2213633,-0.495828870432452,1.6000547952938708,-6.758070329776562,-0.22171433883233518,1.165707335751102,9.775346730761635,0.0010023757411087358,0.0004302960256364723,0.0,-9.258625970400836,2.5549648021487945,-63.1875
1772312472.2581913,-0.495828870432452,1.6000547952938708,-6.758070329776562,-0.21937451672591027,1.1635667527398719,9.77690330130229,0.0004302960256364723,-0.0010023757411087358,0.001090830782496456,-9.717797840899388,1.8817458976735417,-64.0625
1772312472.2840872,-0.495828870432452,1.6000547952938708,-6.758070329776562,-0.21474353334393156,1.1634617526277256,9.777939181609065,-0.0004302960256364723,0.0010023757411087358,0.0,-9.717797840899388,1.8817458976735417,-64.0625
1772312472.3061821,-0.495828870432452,1.6000547952938708,-6.758070329776562,-0.2147355235423771,1.162072342256072,9.781973660089003,-0.0004302960256364723,0.0010023757411087358,0.001090830782496456,-8.363519750033575,1.578905836583783,-63.1875
1772312472.3537765,-0.495828870432452,1.6000547952938708,-6.758070329776562,-0.2147355235423771,1.162072342256072,9.781973660089003,-0.0004302960256364723,0.0010023757411087358,0.001090830782496456,-8.363519750033575,1.578905836583783,-63.1875
1772312472.3799002,-0.495828870432452,1.6000547952938708,-6.758070329776562,-0.2116563352012396,1.1624672391444157,9.781313448742003,-0.0004302960256364723,0.0010023757411087358,0.0,-8.363519750033575,1.578905836583783,-63.1875
1772312472.4114034,-0.495828870432452,1.6000547952938708,-6.758070329776562,-0.2126810276646785,1.1614105046423726,9.784219197172938,0.001432671766745208,-0.0005720797154722634,-0.001090830782496456,-9.258625970400836,2.5549648021487945,-64.375
1772312472.4350736,-0.495828870432452,1.6000547952938708,-6.758070329776562,-0.21336294905253228,1.1607072596357608,9.78280782858707,0.0,0.0,0.0,-9.258625970400836,2.5549648021487945,-64.375
1772312472.476745,-0.495828870432452,1.6000547952938708,-6.758070329776562,-0.21336294905253228,1.1607072596357608,9.78280782858707,0.0,0.0,0.0,-9.258625970400836,2.5549648021487945,-64.375
1772312472.5234578,-0.495828870432452,1.6000547952938708,-6.758070329776562,-0.21513629408853638,1.1633131158473005,9.781868578559195,0.0004302960256364723,-0.0010023757411087358,0.001090830782496456,-8.765543046196376,1.4063268131122224,-64.0
1772312472.5560262,-0.495828870432452,1.6000547952938708,-6.758070329776562,-0.21631643540043513,1.165047284046759,9.781243518157753,0.0,0.0,0.0,-8.765543046196376,1.4063268131122224,-64.0
1772312472.6075735,-0.495828870432452,1.6000547952938708,-6.758070329776562,-0.21402794835278308,1.1675208875815188,9.780827547442977,-0.0010023757411087358,-0.0004302960256364723,0.0,-9.258625970400836,2.5549648021487945,-62.5
1772312472.630506,-0.495828870432452,1.6000547952938708,-6.758070329776562,-0.21250498578664598,1.1691670431019396,9.78055072357899,0.0,0.0,-0.001090830782496456,-9.258625970400836,2.5549648021487945,-62.5
1772312472.6497223,-0.495828870432452,1.6000547952938708,-6.758070329776562,-0.21250498578664598,1.1691670431019396,9.78055072357899,0.0,0.0,-0.001090830782496456,-9.258625970400836,2.5549648021487945,-62.5
1772312472.6725247,-0.495828870432452,1.6000547952938708,-6.758070329776562,-0.2158848630891152,1.1720168651497478,9.783711612097152,-0.0015744554565809993,-0.0018629677923816803,-0.001090830782496456,-9.258625970400836,2.5549648021487945,-62.5
1772312472.7068083,-0.495828870432452,1.6000547952938708,-6.758070329776562,-0.21813413367820522,1.173913389887966,9.78581514809655,-0.001432671766745208,0.0005720797154722634,0.0,-8.938122069667937,1.8083501092750225,-63.5625
1772312472.7485807,-0.495828870432452,1.6000547952938708,-6.758070329776562,-0.21813413367820522,1.173913389887966,9.78581514809655,-0.001432671766745208,0.0005720797154722634,0.0,-8.938122069667937,1.8083501092750225,-63.5625
1772312472.7827623,-0.495828870432452,1.6000547952938708,-6.758070329776562,-0.2183114641592973,1.172101648008002,9.787215027806113,-0.0030071272233262074,-0.001290888076909417,0.0,-8.938122069667937,1.8083501092750225,-63.5625
1772312472.798757,-0.495828870432452,1.6000547952938708,-6.758070329776562,-0.2171099416436043,1.1678220961176906,9.784801520407827,0.0004302960256364723,-0.0010023757411087358,-0.001090830782496456,-10.062389237610361,1.7338210204122042,-62.375
1772312472.8137455,-0.495828870432452,1.6000547952938708,-6.758070329776562,-0.2171099416436043,1.1678220961176906,9.784801520407827,0.0004302960256364723,-0.0010023757411087358,-0.001090830782496456,-10.062389237610361,1.7338210204122042,-62.375
1772312472.8398287,-0.495828870432452,1.6000547952938708,-6.758070329776562,-0.21631034183129655,1.1649741021404152,9.783195358194911,0.0004302960256364723,-0.0010023757411087358,-0.001090830782496456,-10.062389237610361,1.7338210204122042,-62.375
1772312472.8630352,-0.495828870432452,1.6000547952938708,-6.758070329776562,-0.2170977510582694,1.1661526518703942,9.782126475184223,-0.0020047514822174716,-0.0008605920512729446,0.0,-10.062389237610361,1.7338210204122042,-62.375
1772312472.915752,-0.495828870432452,1.6000547952938708,-6.758070329776562,-0.21762176310288242,1.166936963550432,9.778070033773496,-0.0005720797154722635,-0.001432671766745208,0.001090830782496456,-8.191507376794165,2.1288540100079207,-64.0
1772312472.955729,-0.495828870432452,1.6000547952938708,-6.758070329776562,-0.21489662935729587,1.1687784481821104,9.778715629035396,-0.0018629677923816803,0.0015744554565809991,0.0,-8.191507376794165,2.1288540100079207,-64.0
1772312472.9845986,-0.495828870432452,1.6000547952938708,-6.758070329776562,-0.2174764751689735,1.1717582595714908,9.7758001537631,-0.0010023757411087358,-0.0004302960256364723,0.0,-9.439045275787704,2.3414844184042454,-62.75
1772312473.0321004,-0.495828870432452,1.6000547952938708,-6.758070329776562,-0.22094765767560887,1.1693478988868224,9.773859937537381,-0.0010023757411087358,-0.0004302960256364723,0.0,-9.439045275787704,2.3414844184042454,-62.75
1772312473.0572145,-0.495828870432452,1.6000547952938708,-6.758070329776562,-0.22094765767560887,1.1693478988868224,9.773859937537381,-0.0010023757411087358,-0.0004302960256364723,0.0,-9.439045275787704,2.3414844184042454,-62.75
1772312473.0760548,-0.495828870432452,1.6000547952938708,-6.758070329776562,-0.221938156888177,1.1646699728689904,9.7725687453128,0.0020047514822174716,0.0008605920512729446,-0.001090830782496456,-9.086046946929274,2.152941505985994,-64.0
1772312473.0912082,-0.495828870432452,1.6000547952938708,-6.758070329776562,-0.221938156888177,1.1646699728689904,9.7725687453128,0.0020047514822174716,0.0008605920512729446,-0.001090830782496456,-9.086046946929274,2.152941505985994,-64.0
1772312473.1139064,-0.495828870432452,1.6000547952938708,-6.758070329776562,-0.21644960723418308,1.1641959332998777,9.781744806432862,-0.0004302960256364723,0.0010023757411087358,-0.001090830782496456,-9.086046946929274,2.152941505985994,-64.0
1772312473.1335652,-0.495828870432452,1.6000547952938708,-6.758070329776562,-0.212797038750567,1.163880465262002,9.787851372604944,-0.0004302960256364723,0.0010023757411087358,-0.001090830782496456,-9.086046946929274,2.152941505985994,-64.0
1772312473.1704013,-0.495828870432452,1.6000547952938708,-6.758070329776562,-0.21475968710421084,1.1654248487445347,9.788570112470332,-0.0004302960256364723,0.0010023757411087358,0.002181661564992912,-9.209317677980389,2.4401010032451373,-62.75
1772312473.2279449,-0.495828870432452,1.6000547952938708,-6.758070329776562,-0.2160658076593421,1.1664526187002662,9.789048425821896,-0.0010023757411087358,-0.0004302960256364723,0.0,-9.209317677980389,2.4401010032451373,-62.75
1772312473.2774699,-0.495828870432452,1.6000547952938708,-6.758070329776562,-0.2169350162984594,1.1671365881248628,9.789366738014252,-0.00014178368983579123,-0.002435047507853944,-0.002181661564992912,-8.684023650766473,2.3255205294575547,-63.5625
1772312473.326656,-0.495828870432452,1.6000547952938708,-6.758070329776562,-0.2169350162984594,1.1671365881248628,9.789366738014252,-0.00014178368983579123,-0.002435047507853944,-0.002181661564992912,-8.684023650766473,2.3255205294575547,-63.5625
1772312473.350911,-0.495828870432452,1.6000547952938708,-6.758070329776562,-0.21751346493809529,1.1675917621364929,9.782888347807846,-0.0005720797154722635,-0.001432671766745208,-0.001090830782496456,-8.684023650766473,2.3255205294575547,-63.5625
1772312473.372456,-0.495828870432452,1.6000547952938708,-6.758070329776562,-0.21965273998380824,1.163501283478979,9.778577051493842,0.0005720797154722635,0.001432671766745208,-0.001090830782496456,-8.807294381817588,2.612680026716698,-64.0
1772312473.4059763,-0.495828870432452,1.6000547952938708,-6.758070329776562,-0.22064161366168067,1.1682463654113493,9.779053043664529,-0.0008605920512729446,0.0020047514822174716,0.003272492347489368,-8.807294381817588,2.612680026716698,-64.0
1772312473.4434369,-0.495828870432452,1.6000547952938708,-6.758070329776562,-0.21998016407791343,1.168330306523625,9.77936981113694,-0.0010023757411087358,-0.0004302960256364723,0.001090830782496456,-9.569872963638051,1.53715450096257,-64.375
1772312473.4747043,-0.495828870432452,1.6000547952938708,-6.758070329776562,-0.21998016407791343,1.168330306523625,9.77936981113694,-0.0010023757411087358,-0.0004302960256364723,0.001090830782496456,-9.569872963638051,1.53715450096257,-64.375
1772312473.5176792,-0.495828870432452,1.6000547952938708,-6.758070329776562,-0.21953997676879236,1.168386168396161,9.779580616351303,-0.0004302960256364723,0.0010023757411087358,0.0,-9.569872963638051,1.53715450096257,-64.375
1772312473.536712,-0.495828870432452,1.6000547952938708,-6.758070329776562,-0.21953997676879236,1.168386168396161,9.779580616351303,-0.0004302960256364723,0.0010023757411087358,0.0,-9.569872963638051,1.53715450096257,-64.375
1772312473.5637593,-0.495828870432452,1.6000547952938708,-6.758070329776562,-0.2161731791241083,1.169742877818264,9.776375793159295,-0.0005720797154722635,-0.001432671766745208,0.001090830782496456,-8.191507376794165,2.1288540100079207,-63.1875
1772312473.5882747,-0.495828870432452,1.6000547952938708,-6.758070329776562,-0.2218346526542518,1.1636132929657124,9.774243019125233,0.0022932638180181526,-0.002576831197689735,-0.002181661564992912,-8.191507376794165,2.1288540100079207,-63.1875
1772312473.6153464,-0.495828870432452,1.6000547952938708,-6.758070329776562,-0.2218346526542518,1.1636132929657124,9.774243019125233,0.0022932638180181526,-0.002576831197689735,-0.002181661564992912,-8.191507376794165,2.1288540100079207,-63.1875
1772312473.646007,-0.495828870432452,1.6000547952938708,-6.758070329776562,-0.22252844213808076,1.160853656688237,9.772823681830213,0.0005720797154722635,0.001432671766745208,0.001090830782496456,-9.31577454473659,2.0543249211451022,-62.375
1772312473.6649203,-0.495828870432452,1.6000547952938708,-6.758070329776562,-0.224309685259381,1.1620910074804127,9.771879128715414,-0.0005720797154722635,-0.001432671766745208,0.0,-9.31577454473659,2.0543249211451022,-62.375
1772312473.7218566,-0.495828870432452,1.6000547952938708,-6.758070329776562,-0.2224212247511385,1.1642339845804401,9.771250539168864,0.0010023757411087358,0.0004302960256364723,0.001090830782496456,-9.086046946929274,2.152941505985994,-63.5625
1772312473.743842,-0.495828870432452,1.6000547952938708,-6.758070329776562,-0.22116447537838918,1.1656601119018855,9.77752244326208,0.0015744554565809993,0.0018629677923816803,0.0,-9.086046946929274,2.152941505985994,-63.5625
1772312473.7612066,-0.495828870432452,1.6000547952938708,-6.758070329776562,-0.22208244664736482,1.1622157918257947,9.775006101959717,0.0020047514822174716,0.0008605920512729446,0.0,-9.086046946929274,2.152941505985994,-63.5625
1772312473.8135545,-0.495828870432452,1.6000547952938708,-6.758070329776562,-0.22208244664736482,1.1622157918257947,9.775006101959717,0.0020047514822174716,0.0008605920512729446,0.0,-9.086046946929274,2.152941505985994,-63.5625
1772312473.84221,-0.495828870432452,1.6000547952938708,-6.758070329776562,-0.22401288024240562,1.1629974931984108,9.776676616639687,0.00014178368983579123,0.002435047507853944,-0.001090830782496456,-9.439045275787704,2.3414844184042454,-62.375
1772312473.8715322,-0.495828870432452,1.6000547952938708,-6.758070329776562,-0.2239780282656006,1.1604438488220319,9.777788325498337,0.0,0.0,0.001090830782496456,-9.439045275787704,2.3414844184042454,-62.375
1772312473.9177582,-0.495828870432452,1.6000547952938708,-6.758070329776562,-0.21912665281895063,1.164457352863204,9.778528155325166,0.0004302960256364723,-0.0010023757411087358,0.001090830782496456,-8.856602674238035,2.727543825620355,-64.0
1772312473.9494154,-0.495828870432452,1.6000547952938708,-6.758070329776562,-0.21912665281895063,1.164457352863204,9.778528155325166,0.0004302960256364723,-0.0010023757411087358,0.001090830782496456,-8.856602674238035,2.727543825620355,-64.0
1772312473.9916275,-0.495828870432452,1.6000547952938708,-6.758070329776562,-0.21589811665261968,1.1671282949688264,9.77902050381048,0.0020047514822174716,0.0008605920512729446,-0.001090830782496456,-8.856602674238035,2.727543825620355,-64.0
1772312474.027989,-0.495828870432452,1.6000547952938708,-6.758070329776562,-0.21374956189903851,1.1689057771037397,9.779348156227563,-0.002435047507853944,0.00014178368983579112,-0.001090830782496456,-8.462702985106617,2.7606049039780354,-63.5625
1772312474.0861154,-0.495828870432452,1.6000547952938708,-6.758070329776562,-0.21363925668140796,1.1731625295164265,9.779566205251015,-0.0022932638180181526,0.002576831197689735,0.0,-8.462702985106617,2.7606049039780354,-63.5625
1772312474.125935,-0.495828870432452,1.6000547952938708,-6.758070329776562,-0.21224631582131634,1.1729214927883511,9.783056426147676,-0.0010023757411087358,-0.0004302960256364723,0.0,-9.086046946929274,2.152941505985994,-63.1875
1772312474.1839836,-0.495828870432452,1.6000547952938708,-6.758070329776562,-0.21571272111672124,1.1745154094761034,9.782034017458761,-0.0008605920512729446,0.0020047514822174716,0.003272492347489368,-9.086046946929274,2.152941505985994,-63.1875
1772312474.2315817,-0.495828870432452,1.6000547952938708,-6.758070329776562,-0.2167000411485803,1.172502285318908,9.778008504190023,-0.0004302960256364723,0.0010023757411087358,0.0,-9.209317677980389,2.4401010032451373,-62.375
1772312474.278788,-0.495828870432452,1.6000547952938708,-6.758070329776562,-0.21779435133684308,1.1702710105504741,9.773546769351448,0.001432671766745208,-0.0005720797154722634,-0.001090830782496456,-8.995270644003691,1.3077102282713304,-63.5625
1772312474.3177013,-0.495828870432452,1.6000547952938708,-6.758070329776562,-0.22115920071441666,1.168358151276996,9.775705447090697,-0.001432671766745208,0.0005720797154722634,0.001090830782496456,-8.995270644003691,1.3077102282713304,-63.5625
1772312474.363617,-0.495828870432452,1.6000547952938708,-6.758070329776562,-0.22115920071441666,1.168358151276996,9.775705447090697,-0.001432671766745208,0.0005720797154722634,0.001090830782496456,-8.995270644003691,1.3077102282713304,-63.5625
1772312474.389641,-0.495828870432452,1.6000547952938708,-6.758070329776562,-0.22339847038736146,1.1670851647985345,9.777142023012159,-0.001144159430944527,-0.002865343533490416,0.0,-8.536098773505136,1.980929132746583,-63.5625
1772312474.415463,-0.495828870432452,1.6000547952938708,-6.758070329776562,-0.22488867934042495,1.1662380065173088,9.778098048240286,-0.0010023757411087358,-0.0004302960256364723,-0.001090830782496456,-8.536098773505136,1.980929132746583,-63.5625
1772312474.4373581,-0.495828870432452,1.6000547952938708,-6.758070329776562,-0.22488867934042495,1.1662380065173088,9.778098048240286,-0.0010023757411087358,-0.0004302960256364723,-0.001090830782496456,-8.536098773505136,1.980929132746583,-63.5625
1772312474.4561093,-0.495828870432452,1.6000547952938708,-6.758070329776562,-0.21973268093660714,1.1683133000844284,9.782079384057424,-0.00014178368983579123,-0.002435047507853944,0.001090830782496456,-9.569872963638051,1.53715450096257,-64.375
1772312474.4947724,-0.495828870432452,1.6000547952938708,-6.758070329776562,-0.2211296034405508,1.163981458923223,9.781383806861973,-0.0005720797154722635,-0.001432671766745208,-0.001090830782496456,-9.569872963638051,1.53715450096257,-64.375
1772312474.5219235,-0.495828870432452,1.6000547952938708,-6.758070329776562,-0.2211296034405508,1.163981458923223,9.781383806861973,-0.0005720797154722635,-0.001432671766745208,-0.001090830782496456,-9.569872963638051,1.53715450096257,-64.375
1772312474.5444539,-0.495828870432452,1.6000547952938708,-6.758070329776562,-0.22030491582454853,1.165492058897904,9.780920908008508,0.0010023757411087358,0.0004302960256364723,0.0,-9.439045275787704,2.3414844184042454,-62.75
1772312474.5744224,-0.495828870432452,1.6000547952938708,-6.758070329776562,-0.2210756293984118,1.1695712042142252,9.780612853992444,-0.0008605920512729446,0.0020047514822174716,0.002181661564992912,-9.439045275787704,2.3414844184042454,-62.75
1772312474.597135,-0.495828870432452,1.6000547952938708,-6.758070329776562,-0.22158853067238304,1.1722858298551981,9.783752959193263,-0.0007188083614371534,0.0044397989900714155,0.001090830782496456,-9.439045275787704,2.3414844184042454,-62.75
1772312474.6161857,-0.495828870432452,1.6000547952938708,-6.758070329776562,-0.22158853067238304,1.1722858298551981,9.783752959193263,-0.0007188083614371534,0.0044397989900714155,0.001090830782496456,-9.439045275787704,2.3414844184042454,-62.75
1772312474.6447694,-0.4305744366868737,1.5930542718995322,-6.7405805323386145,-0.24344686609447724,1.164855645105271,9.785842664127136,-0.021920372526814592,0.009583571473192687,0.039269908169872414,-8.938122069667937,1.8083501092750225,-62.5
1772312474.6724095,-0.4305744366868737,1.5930542718995322,-6.7405805323386145,-0.25667381017432683,1.1568370822471181,9.787233339417094,0.0124637498750704,-0.004146341698141635,-0.044724062082354694,-8.938122069667937,1.8083501092750225,-62.5
1772312474.7140355,-0.5026409749041578,1.602514085120123,-6.7444136932198555,-0.25667381017432683,1.1568370822471181,9.787233339417094,0.0124637498750704,-0.004146341698141635,-0.044724062082354694,-8.938122069667937,1.8083501092750225,-62.5
1772312474.754892,-0.4875210266818005,1.6047887986350278,-6.737135191105613,-0.3120491804209862,1.1751917734308899,9.78481370658038,0.004151286654270734,0.004156231610399833,0.019634954084936207,-8.363519750033575,1.578905836583783,-63.1875
1772312474.7824094,-0.5158193853140268,1.6034908661175666,-6.701991788153027,-0.2592938733130569,1.1821891357649774,9.82334480844445,-0.010018812454958259,-0.012610478521035291,-0.020725784867432664,-8.363519750033575,1.578905836583783,-63.1875
1772312474.810761,-0.480242769815492,1.60125986143759,-6.722015488131188,-0.4152301141251761,1.1485186608377311,9.852331938021697,-0.0025867211099479324,0.014321772711322983,0.07744898555724837,-9.258625970400836,2.5549648021487945,-61.1875
1772312474.8532255,-0.4094668738157244,1.6094104019624047,-6.736163585933654,-0.298929884747777,1.0968136033234959,9.901728554313776,0.02635522656075691,-0.0005572448470849673,-0.014180800172453928,-9.258625970400836,2.5549648021487945,-61.1875
1772312474.8759577,-0.4854469646245853,1.5648725743975707,-6.757265386296577,-0.40782532812046907,1.1571682859017343,9.934601450659795,0.007862387370646798,0.025929875491249536,-0.055632369907319255,-8.610627862367956,3.105196300689007,-64.0
1772312474.9159975,-0.42103603381096577,1.5729703204956758,-6.735836408169373,-0.4473056799944762,1.120487205259611,9.909646432061285,-0.016893658952883618,-0.013187503192636653,0.06217735460229799,-8.610627862367956,3.105196300689007,-64.0
1772312474.9407516,-0.42103603381096577,1.5729703204956758,-6.735836408169373,-0.4473056799944762,1.120487205259611,9.909646432061285,-0.016893658952883618,-0.013187503192636653,0.06217735460229799,-8.610627862367956,3.105196300689007,-64.0
1772312474.965074,-0.4162897457094027,1.610424380569907,-6.729340714039977,-0.5065677623909125,1.1729228035387578,9.872968475705886,0.00044018593789466894,-0.01761741227044987,-0.011999138607461015,-8.610627862367956,3.105196300689007,-64.0
1772312474.9935572,-0.43906284117966954,1.6242719815171156,-6.725840076909629,-0.5345346723299411,1.1217349229679174,9.798383029861194,-0.008028895841128083,0.013172668324249357,-0.02181661564992912,-8.462702985106617,2.7606049039780354,-63.1875
1772312475.0222507,-0.4807094809088221,1.6023309677411925,-6.750791558584113,-0.3257415095817237,1.2872179030846815,9.798923924435364,0.02047286589168209,0.01591106303629128,-0.05126904677733343,-8.462702985106617,2.7606049039780354,-63.1875
1772312475.042285,-0.4807094809088221,1.6023309677411925,-6.750791558584113,-0.3257415095817237,1.2872179030846815,9.798923924435364,0.02047286589168209,0.01591106303629128,-0.05126904677733343,-8.462702985106617,2.7606049039780354,-63.1875
1772312475.0746546,-0.6897398256097215,1.5073268462699005,-6.771807182819616,-0.30842677448242517,1.3414897610807588,9.782558325195689,0.011866945378952642,0.03595857785846599,-0.09272061651219876,-8.191507376794165,2.1288540100079207,-63.5625
1772312475.1159563,-1.177470101465215,1.2467992832560841,-6.555917944243393,-0.26309157470764366,1.392121949990204,9.96902879244925,-0.14269509695904853,0.058640643313971556,-0.2617993877991494,-8.191507376794165,2.1288540100079207,-63.5625
1772312475.1412692,-2.0149883063219196,1.0243058232060842,-5.707604711555791,-0.17486201100715715,1.2905673581729795,10.186785933199836,-0.42031361759713554,-0.1270115019046958,-0.40906154343617096,-9.914464360349022,1.3892296237012325,-64.0
1772312475.1673498,-2.5739268135137507,1.0327687174885478,-5.239710921065956,0.049422479160169175,1.2612958890860575,10.729769171033709,-0.36452680786648817,-0.24314035922734428,-0.49414634447089456,-9.914464360349022,1.3892296237012325,-64.0
1772312475.1971679,-3.142208241626886,1.2225970515457911,-4.47576473862842,0.19868130194460726,1.2418160533924454,11.178091354682259,-0.3922553667204411,-0.34170125384083383,-0.22252947962927702,-9.914464360349022,1.3892296237012325,-64.0
1772312475.2263432,-3.1662775619072114,1.5701265606302457,-3.6018284520463952,0.22116493348539135,1.195864091093657,11.476444759813434,-0.4041025322748773,-0.4108899047579821,-0.006544984694978736,-10.333584845922813,2.365571914382319,-61.5625
1772312475.2559335,-3.1662775619072114,1.5701265606302457,-3.6018284520463952,0.22116493348539135,1.195864091093657,11.476444759813434,-0.4041025322748773,-0.4108899047579821,-0.006544984694978736,-10.333584845922813,2.365571914382319,-61.5625
1772312475.287758,-1.7812602446373342,2.2650122830530703,-2.129066263437524,0.1509442617043334,1.117795514649325,11.591367825419335,-0.36572374177694467,-0.39797607903275883,0.6370451769779303,-10.333584845922813,2.365571914382319,-61.5625
1772312475.3303318,1.2774390580419606,3.1675474725909227,-0.6787210937175439,0.1042131890503403,1.0658417491087622,11.383513346683154,-0.2732941605192978,-0.4722590528717374,1.2228213071785272,-8.80559443112114,-0.24323438204411685,-58.5
1772312475.3737526,4.290721435908976,4.115025294294857,-0.03398959126648668,0.17806014104824158,1.0835985032666597,10.877226225165758,0.013601259469572873,-0.47137211600191087,1.3602659857730806,-8.80559443112114,-0.24323438204411685,-58.5
1772312475.418415,7.941087570404907,5.246475851404937,0.22063341048964819,0.32556791572404936,1.1376405118411512,10.496811349198497,0.21734237751367233,-0.3376143364586463,1.2860894925633215,-5.159047392936745,-4.935269622566999,-56.5
1772312475.4620526,10.831990415232202,5.86031066203648,0.23627200626927186,0.4250522259709381,1.1705310069510058,9.828855647047286,0.18313797841274784,-0.14455644471352214,1.3340860469931657,-5.159047392936745,-4.935269622566999,-56.5
1772312475.4960558,14.158710014326319,5.8164794424550115,0.23356767331750722,0.4242346438591825,0.8906250865826096,9.310746131258725,0.11337068278609011,0.11751864452213985,1.5271630954950384,-3.516476504347489,-7.018781891779519,-55.5625
1772312475.5452812,17.206274608395706,5.253081543906925,0.10189492738129907,0.3250439497493501,0.3999024138718449,8.965950036163953,0.10628814813074264,0.4658573869667023,1.9394971312786986,-3.516476504347489,-7.018781891779519,-55.5625
1772312475.5844834,23.251621869821257,4.288278324120706,-0.05528188539056074,0.2590336508519113,0.07333195691426385,9.234913730893721,0.08714572996500276,0.38047905058972026,2.232930611770245,2.567431107256082,-11.684746360511804,-58.5
1772312475.605188,26.967272369195662,3.8944362610498744,-0.09004094399701805,0.33874646176247014,0.2294261113717109,9.413906065215047,0.05197024489765221,0.2799084595378842,2.205659842207834,2.567431107256082,-11.684746360511804,-58.5
1772312475.6465707,30.448369543707003,3.483415378860136,-0.10982325094157584,0.49754932947099845,0.5024733608657278,9.5497490227671,0.029903143724872724,0.2953645017678935,2.0245819323134224,2.567431107256082,-11.684746360511804,-58.5
1772312475.6913626,36.76955959016838,2.60962691876059,-0.14813911182926992,0.5834378544375305,0.7302911238815417,9.603354764772215,-0.017506918355296747,0.29519304834128307,1.8860464229363723,10.719737074473707,-16.891118770056472,-56.75
1772312475.7366896,39.66968215958768,2.3832248879333746,-0.15758551209151758,0.48382895507346896,0.8146050678100315,9.639028787261244,0.020672369017158996,0.1620089685513988,1.7409659288643438,10.719737074473707,-16.891118770056472,-56.75
1772312475.77214,43.060421531053855,2.4166254239109906,0.06735262449643425,0.3402894357244656,0.7793082420847688,9.34163872682009,-0.061956062697614826,-0.10731848872831301,1.423534171157875,15.44124298818008,-21.393761122812876,-58.5
1772312475.8121197,45.99140762053205,2.7897563440333273,0.46166240846997236,0.2351242894149846,0.7189171398972396,9.143728963661149,-0.027937951891688035,-0.22804376359925596,1.2980886311707827,15.44124298818008,-21.393761122812876,-58.5
1772312475.8469822,48.09652891318622,3.21361763254311,0.6942840172564677,0.07296781428714334,0.5627146951150149,9.015367338783104,0.038693647652286896,-0.27541426603039265,1.2588187230009102,16.197681238781684,-23.789653685726915,-58.75
1772312475.8732464,50.99662554804122,3.7178967586371914,0.8470681971083394,-0.07746890891061509,0.3203794508961375,8.950014781563985,0.11742136543746594,-0.19057339467597917,1.3188144160382154,16.197681238781684,-23.789653685726915,-58.75
1772312475.8988657,50.99662554804122,3.7178967586371914,0.8470681971083394,-0.07746890891061509,0.3203794508961375,8.950014781563985,0.11742136543746594,-0.19057339467597917,1.3188144160382154,16.197681238781684,-23.789653685726915,-58.75
1772312475.9298222,53.963601106358915,3.6905530127449824,0.905626829002183,-0.25750317331005385,0.12480016971186622,8.906523384770558,0.11337724778012732,-0.13414195092583112,1.3406310316881445,16.17529369350006,-27.540107664622838,-60.375
1772312475.9497821,56.138096883360504,3.8919234195819112,0.9746339481874379,-0.38038782306105146,-0.006675191122492016,8.824058558718159,0.09130520165121873,-0.11037839043115123,1.2860894925633215,16.17529369350006,-27.540107664622838,-60.375
1772312475.9674137,56.138096883360504,3.8919234195819112,0.9746339481874379,-0.38038782306105146,-0.006675191122492016,8.824058558718159,0.09130520165121873,-0.11037839043115123,1.2860894925633215,16.17529369350006,-27.540107664622838,-60.375
1772312475.9974217,58.22183678898602,4.098764731586109,1.0062385453635803,-0.45909232685118023,-0.09285104111179654,8.769179138172753,0.1430083340754947,-0.10361565788628707,1.22500296874352,16.17529369350006,-27.540107664622838,-60.375
1772312476.0182893,60.85598910718595,4.356147051605941,1.0113937056791078,-0.50356725518351,-0.14316764681483501,8.819630401233384,0.12337628041056917,-0.08830139934611356,1.1759155835311796,16.275610229037397,-30.625749671190967,-60.0
1772312476.0347703,62.08377988145892,4.504251712005676,1.0696873620994458,-0.5402427751885093,-0.09232392429302261,8.896691605417852,0.08488043100344624,-0.1451878639025436,1.0853766285839737,16.275610229037397,-30.625749671190967,-60.0
1772312476.051757,63.25319319805158,4.727745029595513,1.1266307379760443,-0.5369852028903279,-0.046612189186815124,8.94797497597256,0.1403441137053893,-0.19972667012353543,1.0341075818066403,16.275610229037397,-30.625749671190967,-60.0
1772312476.06871,63.25319319805158,4.727745029595513,1.1266307379760443,-0.5369852028903279,-0.046612189186815124,8.94797497597256,0.1403441137053893,-0.19972667012353543,1.0341075818066403,16.275610229037397,-30.625749671190967,-60.0
1772312476.0983655,64.94898125879494,5.191546668458616,1.0353514373156143,-0.5348476530485634,0.034759674420015575,8.778051672057451,0.25007292516091073,-0.22028692518763318,1.0101093045917182,15.78309395506509,-30.42908315174133,-61.25
1772312476.1253946,67.10413527796496,5.767405255513425,0.8146212519504125,-0.44428325818419107,0.12717822579559188,8.664969611469624,0.2805497686391638,-0.16684282883629495,0.9522952731194061,15.78309395506509,-30.42908315174133,-61.25
1772312476.1514242,67.10413527796496,5.767405255513425,0.8146212519504125,-0.44428325818419107,0.12717822579559188,8.664969611469624,0.2805497686391638,-0.16684282883629495,0.9522952731194061,15.78309395506509,-30.42908315174133,-61.25
1772312476.178369,69.0898980770883,5.955656827155076,0.7572755724180119,-0.32261232725198163,0.34245045507011634,8.710138784821309,0.16245904440155168,-0.05490481781695,0.8955720724295904,16.39189065352143,-32.95637005273787,-62.375
1772312476.208132,70.43120768351234,5.680384931647771,0.17584365693616663,-0.22234411855492114,0.5340390295578414,8.740198365114129,0.04667641885034501,0.0295338072106935,0.8432121948697605,16.39189065352143,-32.95637005273787,-62.375
1772312476.2340543,70.43120768351234,5.680384931647771,0.17584365693616663,-0.22234411855492114,0.5340390295578414,8.740198365114129,0.04667641885034501,0.0295338072106935,0.8432121948697605,16.39189065352143,-32.95637005273787,-62.375
1772312476.2622387,72.18708767212772,5.59429841349611,0.05598490474142541,-0.1029566994712023,0.742389627496433,8.760202680011485,0.028198414528622193,0.031098372755016302,0.7973973020049093,16.5485057880463,-34.1134149739219,-61.5625
1772312476.3024063,73.86123283179644,5.549712929250787,0.01655853341530407,-0.020462175941372708,0.9333153714930243,8.914010019820251,0.1016455210969733,0.0839951141715278,0.7308566242726255,16.5485057880463,-34.1134149739219,-61.5625
1772312476.3244464,73.86123283179644,5.549712929250787,0.01655853341530407,-0.020462175941372708,0.9333153714930243,8.914010019820251,0.1016455210969733,0.0839951141715278,0.7308566242726255,16.5485057880463,-34.1134149739219,-61.5625
1772312476.3476758,75.78467104155838,5.302313585473762,-0.24595194744797136,0.03443700794352021,1.0603743213424495,9.180277559981072,0.13394082776244615,0.21063241944832017,0.6686792696703275,19.912900359726112,-33.55335991765385,-66.0
1772312476.371227,77.38249941934643,4.8614266378212605,-0.6110318733528497,0.11364684262758681,1.0285588226017741,9.762234150140428,0.1270115867471007,0.30143809568809504,0.7646723785300157,19.912900359726112,-33.55335991765385,-66.0
1772312476.4103596,79.18451148627395,4.334514874499925,-0.8826472769898227,0.1663601027780031,1.0073859635922624,10.162900206839689,0.046092829184706474,0.2880692491565898,0.8104872713948668,22.152461113231354,-32.11586248066169,-66.375
1772312476.426009,79.18451148627395,4.334514874499925,-0.8826472769898227,0.1663601027780031,1.0073859635922624,10.162900206839689,0.046092829184706474,0.2880692491565898,0.8104872713948668,22.152461113231354,-32.11586248066169,-66.375
1772312476.4500904,80.57017854665058,3.903779183280416,-1.1030121664153627,0.24012629959208986,0.9370966401639903,10.416158545010653,0.07313719437012592,0.33291731490745685,0.8279405639148101,22.152461113231354,-32.11586248066169,-66.375
1772312476.4734354,82.00835448615092,3.4811550683294707,-1.4199677771212986,0.2905364135194023,0.887246022697987,10.504416459006757,0.11839083136598395,0.3464081653042814,0.8519388411297321,22.152461113231354,-32.11586248066169,-66.375
1772312476.491435,82.00835448615092,3.4811550683294707,-1.4199677771212986,0.2905364135194023,0.887246022697987,10.504416459006757,0.11839083136598395,0.3464081653042814,0.8519388411297321,22.152461113231354,-32.11586248066169,-66.375
1772312476.5296223,84.88970646351338,2.692882958631347,-2.3689707227963197,0.29876353704512415,0.7169181066674286,10.479659136251387,0.20504027599535896,0.3574886929738976,0.7733990247899872,26.231825925007634,-33.22133250849667,-70.0
1772312476.560361,86.38693481803884,2.232577576219226,-3.0706932810873826,0.2637489462587566,0.6141808836957838,10.359349137519498,0.23196758227158815,0.3583641198935579,0.6446809924554054,26.231825925007634,-33.22133250849667,-70.0
1772312476.5916383,87.09065631490702,1.9832281247513066,-3.512638440178058,0.1605268216293976,0.5115025262394713,10.215727054875103,0.19078773266984336,0.2385967161585618,0.33597588100890846,31.36206211632782,-35.0319492187003,-69.1875
1772312476.616825,87.45848046425463,1.9279646541114084,-3.887041898481729,0.07467970914591314,0.483131379144522,10.08335193445853,0.19930131905402804,0.13303897118182745,0.21598449493429828,31.36206211632782,-35.0319492187003,-69.1875
1772312476.6480417,87.57282391328674,2.0066676342745553,-4.069672282277647,0.025421126383114005,0.5222343720240249,9.995257770548287,0.16916243747286663,-0.006917731065179182,0.08508480103472356,31.36206211632782,-35.0319492187003,-69.1875
1772312476.6614406,87.57282391328674,2.0066676342745553,-4.069672282277647,0.025421126383114005,0.5222343720240249,9.995257770548287,0.16916243747286663,-0.006917731065179182,0.08508480103472356,31.36206211632782,-35.0319492187003,-69.1875
1772312476.6842036,87.61707606582559,2.0889599662604508,-4.249486965594426,0.020304810978000676,0.560132782705819,9.913216306591075,0.1372183075349647,-0.0016371198483512103,0.02945243112740431,35.10665908912096,-39.00174058744356,-71.1875
1772312476.6991036,87.61707606582559,2.0889599662604508,-4.249486965594426,0.020304810978000676,0.560132782705819,9.913216306591075,0.1372183075349647,-0.0016371198483512103,0.02945243112740431,35.10665908912096,-39.00174058744356,-71.1875
1772312476.7245262,87.6321099220556,1.8779174769337188,-4.398940575774424,-0.016949193375963477,0.5061094378399354,9.827855730291853,0.025156672612392295,0.08796011253080085,0.11780972450961724,35.10665908912096,-39.00174058744356,-71.1875
1772312476.7605436,87.6321099220556,1.8779174769337188,-4.398940575774424,-0.016949193375963477,0.5061094378399354,9.827855730291853,0.025156672612392295,0.08796011253080085,0.11780972450961724,35.10665908912096,-39.00174058744356,-71.1875
1772312476.801925,87.96266851720493,1.7697539905724702,-4.503490377753345,-0.07899535722535814,0.46063407351231533,9.83191812416961,0.07042514447663759,0.07652840813361378,0.19962203319685143,35.738409983091074,-38.7305449791311,-74.0
1772312476.8367553,88.66171986229213,1.6966520976555555,-4.698440715813146,-0.138759861745345,0.47340473725288684,9.891488500939774,0.06169227514245966,0.06921832065392286,0.24216443371421323,35.738409983091074,-38.7305449791311,-74.0
1772312476.859368,89.18922237168061,1.679882739083207,-4.657227007899736,-0.24318963641761274,0.6325225087908186,9.951202591479523,-0.027049310141548568,-0.03654054748619645,0.24107360293171676,37.495844670583985,-40.764748955923174,-74.75
1772312476.9038424,89.51160316162876,1.7004176103715907,-4.471944513081947,-0.3342034902587367,0.7291768704977004,9.99094165168363,-0.14054694174908722,-0.18141679431020194,0.19525871006686563,37.495844670583985,-40.764748955923174,-74.75
1772312476.9374,89.98436620397068,2.0414503086205844,-4.000914788088591,-0.3855354555090013,0.7719822631599159,9.990626658676517,-0.1004271873240923,-0.2057425446080959,0.13744467859455345,38.37470367688848,-42.019843811715944,-76.0
1772312476.9608688,90.09226685756865,2.0513393340638846,-3.919405731290881,-0.4196963049674287,0.8004687738090533,9.990417034348987,-0.06852756199135221,-0.13625549144288876,0.1090830782496456,38.37470367688848,-42.019843811715944,-76.0
1772312476.9963722,90.21197042638272,1.9603295201268591,-3.9130000583860913,-0.4591036281220566,0.7904268092252216,9.966861749749436,-0.003241245041706799,-0.08923616573932297,0.08072147790473774,38.37470367688848,-42.019843811715944,-76.0
1772312477.0490956,90.38963588304352,1.8691109528436969,-4.041626395041402,-0.5063958127921814,0.7564988987028475,10.03146865195387,0.03401811080592681,-0.12072527487094296,0.07417649320975901,36.749229977710215,-41.085252856656076,-79.5625
1772312477.062795,90.44230873673723,1.968023991218898,-4.161537850393759,-0.5444659032515742,0.7492895427881934,10.000871366103508,0.13197231101104043,-0.09173387763894714,0.04908738521234052,36.749229977710215,-41.085252856656076,-79.5625
1772312477.0877018,90.36183765656062,2.151297661320826,-4.266293733014599,-0.5074695491589974,0.8112925831939483,10.054101671725197,0.09973966873733779,-0.08301584317315648,-0.03599741582238305,36.749229977710215,-41.085252856656076,-79.5625
1772312477.1144092,90.36183765656062,2.151297661320826,-4.266293733014599,-0.5074695491589974,0.8112925831939483,10.054101671725197,0.09973966873733779,-0.08301584317315648,-0.03599741582238305,36.749229977710215,-41.085252856656076,-79.5625
1772312477.1377048,89.96141249408683,2.142975031182591,-4.512678162783039,-0.4516755197421762,0.8732175034494247,10.01593338793393,0.11658882308505952,0.004939324401515266,-0.1712604328519436,38.22677879962714,-41.67525241500498,-80.75
1772312477.1709664,89.71124656586224,2.062847684545515,-4.563254912529525,-0.41190614848553103,0.908280130317403,9.913595252170163,0.002537271548656944,0.06875340993538269,-0.24107360293171676,38.22677879962714,-41.67525241500498,-80.75
1772312477.211127,89.24409166271978,1.873533085829271,-4.732719666856494,-0.3762033383775799,0.9100969114690877,9.8354550308893,0.035200209847996045,0.05903299972848331,-0.12980886311707826,37.791694425106655,-41.45393174934512,-80.375
1772312477.2497978,89.26060290651681,1.8360876850828187,-5.007432921028385,-0.3370742275388675,0.917903628880501,9.783453586510351,0.12356094866765878,0.08271906096300569,0.032724923474893676,37.791694425106655,-41.45393174934512,-80.375
1772312477.2691498,89.26060290651681,1.8360876850828187,-5.007432921028385,-0.3370742275388675,0.917903628880501,9.783453586510351,0.12356094866765878,0.08271906096300569,0.032724923474893676,37.791694425106655,-41.45393174934512,-80.375
1772312477.302579,89.38050147070373,1.645088102818216,-5.601727391535197,-0.1200926912337018,1.019285421494976,9.814956985531795,0.11752691439648996,0.11336735786786911,0.02945243112740431,39.753069263732364,-41.428144302670596,-81.1875
1772312477.3287997,89.38050147070373,1.645088102818216,-5.601727391535197,-0.1200926912337018,1.019285421494976,9.814956985531795,0.11752691439648996,0.11336735786786911,0.02945243112740431,39.753069263732364,-41.428144302670596,-81.1875
1772312477.3623621,89.33715948259247,1.6477599169219663,-5.891977761505529,-0.03366580317528802,1.1896198591835214,9.786537924839699,0.08805739161547475,0.05204603927749676,-0.03599741582238305,39.753069263732364,-41.428144302670596,-81.1875
1772312477.3856807,89.33715948259247,1.6477599169219663,-5.891977761505529,-0.03366580317528802,1.1896198591835214,9.786537924839699,0.08805739161547475,0.05204603927749676,-0.03599741582238305,39.753069263732364,-41.428144302670596,-81.1875
1772312477.422585,89.03925108367991,1.8262546178090475,-6.079618893898217,0.02385032537598763,1.302975524704905,9.767625357410816,0.04427598603539476,-0.028477036952164678,-0.14835298641951802,41.3211110634588,-42.387389403940695,-80.375
1772312477.4428322,88.39661320009169,2.176711625490957,-6.093384502030006,0.06655038644044264,1.325706915378714,9.755039255054117,0.04778758362629392,-0.1528012985864225,-0.1636246173744684,41.3211110634588,-42.387389403940695,-80.375
1772312477.4615412,88.39661320009169,2.176711625490957,-6.093384502030006,0.06655038644044264,1.325706915378714,9.755039255054117,0.04778758362629392,-0.1528012985864225,-0.1636246173744684,41.3211110634588,-42.387389403940695,-80.375
1772312477.4960308,88.26087430413921,2.5042543939461006,-6.074235423622861,-0.0485591213044009,1.1663727686109213,9.726592674287792,0.07560515169057064,-0.20377573273700314,-0.05672320068981571,41.493690086930364,-42.7894127001035,-81.5625
1772312477.5311315,88.42092182496866,3.1564724853408417,-6.050983707576506,-0.12516321285113965,1.0603376738159975,9.707661792556932,0.0793360322314631,-0.2152321619148357,0.1090830782496456,41.493690086930364,-42.7894127001035,-81.5625
1772312477.5447593,88.42092182496866,3.1564724853408417,-6.050983707576506,-0.12516321285113965,1.0603376738159975,9.707661792556932,0.0793360322314631,-0.2152321619148357,0.1090830782496456,41.493690086930364,-42.7894127001035,-81.5625
1772312477.5621378,88.56807282744543,3.3505493707708833,-6.052129606305814,-0.17049011047056348,1.0868467499285652,9.761965736383237,0.050794710849620124,-0.15151041050951308,0.15489797111449674,41.493690086930364,-42.7894127001035,-81.5625
1772312477.585828,88.8940356296598,3.497106865704706,-6.126813788453705,-0.18838955100416166,1.1607175943626786,9.801449516092163,0.048163485134510305,-0.062420973416155,0.15707963267948966,40.156792510591615,-44.11147968795985,-83.1875
1772312477.614797,89.07729024164118,3.4515509212408975,-6.190175400088307,-0.20030142872941925,1.20987781614218,9.827725530425734,0.017450903799968588,0.03954272975339356,0.16253378659197193,40.156792510591615,-44.11147968795985,-83.1875
1772312477.63623,89.256160620877,3.2928901758025453,-6.285302096503106,-0.21569590007649048,1.2430281845485598,9.8084156956619,-0.014371222272613967,0.08048846153675773,0.06544984694978735,40.156792510591615,-44.11147968795985,-83.1875
1772312477.656551,89.256160620877,3.2928901758025453,-6.285302096503106,-0.21569590007649048,1.2430281845485598,9.8084156956619,-0.014371222272613967,0.08048846153675773,0.06544984694978735,40.156792510591615,-44.11147968795985,-83.1875
1772312477.708253,89.30925096142367,3.0207416344010576,-6.387144111697961,-0.2351774865800931,1.2866063897628757,9.795565216331555,-0.033719708557867926,0.10067281509263915,0.018544123302439753,40.92777802455954,-43.372421951885315,-85.1875
1772312477.7300122,89.34199854993996,2.6914681253550996,-6.275631173589986,-0.22355140151323266,1.3261634702921419,9.79704870100843,-0.11594418906555885,0.11523365057847182,-0.006544984694978736,40.92777802455954,-43.372421951885315,-85.1875
1772312477.761107,89.21648113052414,2.4219111229736554,-6.298120848737955,-0.20657763398347742,1.3309712601490766,9.79803594348928,-0.061365823195534255,0.10423718716305032,-0.06763150851478027,41.54356502958296,-43.85624796859409,-84.75
1772312477.7857232,89.10865307303617,2.2423969761491156,-6.354335309766397,-0.1996448450462509,1.2849739000028761,9.912426740380925,0.008815313550464549,0.10943535416359168,-0.08726646259971647,41.54356502958296,-43.85624796859409,-84.75
1772312477.8316524,88.98540712173521,2.0435679389816666,-6.472315733988593,-0.1950311514528535,1.2543631706497596,9.888199186663803,0.008658694992241462,0.13192286144974943,-0.08290313946973066,41.54356502958296,-43.85624796859409,-84.75
1772312477.8499563,88.92127473634692,1.0765324459916816,-7.110360314648663,-0.17659150036638976,1.240589742059255,9.872076020304567,0.04015769403611963,0.1525671807680419,-0.061086523819801536,43.414446890399155,-43.46121497899837,-84.375
1772312477.8673005,88.92127473634692,1.0765324459916816,-7.110360314648663,-0.17659150036638976,1.240589742059255,9.872076020304567,0.04015769403611963,0.1525671807680419,-0.061086523819801536,43.414446890399155,-43.46121497899837,-84.375
1772312477.9246907,88.8499987299209,1.6655177628509361,-6.688362133571917,-0.16520486255491454,1.241964786884537,9.861346233200065,-0.033386691616905356,0.02246772746164136,-0.01090830782496456,43.414446890399155,-43.46121497899837,-84.375
1772312477.9427648,88.79900875427063,1.6680176567207554,-6.710449653423195,-0.4038593999241655,1.413310190904975,9.793741259368248,-0.02076137822748277,-0.012473639787328598,-0.003272492347489368,45.48199527066498,-42.573665715430344,-84.0
1772312477.9663367,88.79900875427063,1.6680176567207554,-6.710449653423195,-0.4038593999241655,1.413310190904975,9.793741259368248,-0.02076137822748277,-0.012473639787328598,-0.003272492347489368,45.48199527066498,-42.573665715430344,-84.0
1772312477.9894872,88.91532967380942,1.6831775059225214,-6.67012851421879,-0.5251276431158065,1.427500899587904,9.775764207780368,-0.021910482614556397,-0.007031465056148446,0.06435901616729091,45.48199527066498,-42.573665715430344,-84.0
1772312478.0014248,88.91532967380942,1.6831775059225214,-6.67012851421879,-0.5251276431158065,1.427500899587904,9.775764207780368,-0.021910482614556397,-0.007031465056148446,0.06435901616729091,45.48199527066498,-42.573665715430344,-84.0
1772312478.0134897,88.99087075220814,1.68759345445209,-6.66908113908206,-0.45074205461791583,1.3724694619675644,9.773836015887415,0.00544217473118015,0.0011491043870736255,0.0719948316447661,43.73495079113205,-44.20782967187215,-84.0
1772312478.027528,89.0564709637053,1.6972794611752176,-6.664260012314475,-0.3590748456421036,1.3393856309813341,9.77255282572197,-0.0050168236616727774,0.006156038136488206,0.05890486225480862,43.73495079113205,-44.20782967187215,-84.0
1772312478.0462413,89.09658199111117,1.7092807799463787,-6.665649143336053,-0.27258057072832104,1.2919082678336151,9.775043988708358,-0.004156231610399833,0.004151286654270734,0.020725784867432664,43.73495079113205,-44.20782967187215,-84.0
1772312478.0840735,89.09686692638346,1.7034178618442217,-6.669441149800838,-0.21501959697755804,1.260312613015705,9.786737164969644,0.0027186148875255264,0.0047283113258720965,-0.002181661564992912,43.414446890399155,-43.46121497899837,-84.375
1772312478.1420915,89.09091120388159,1.6948404443373022,-6.708379599227783,-0.26198767375708687,1.3446516424110015,9.794518843150192,-0.002865343533490416,0.0011441594309445269,0.007635815477475192,43.414446890399155,-43.46121497899837,-84.375
1772312478.167817,89.09148682764568,1.6831143568051241,-6.71596295561522,-0.3116875516321385,1.392861120525191,9.799697463052306,-0.03150394400000728,-0.012336801053621905,0.002181661564992912,43.66854530930061,-42.94404455881584,-84.75
1772312478.200984,89.09148682764568,1.6831143568051241,-6.71596295561522,-0.3116875516321385,1.392861120525191,9.799697463052306,-0.03150394400000728,-0.012336801053621905,0.002181661564992912,43.66854530930061,-42.94404455881584,-84.75
1772312478.214153,89.10738160688337,1.686423215260732,-6.680795588432826,-0.3122087058930415,1.3406302921977613,9.813179111870147,-0.012175237539269718,0.0007089184491789559,0.018544123302439753,43.66854530930061,-42.94404455881584,-84.75
1772312478.261664,89.1322540259787,1.6916893280348138,-6.686308279382038,-0.31255552823199784,1.3058712594024389,9.822150998558534,0.008160789618705677,0.005877415712945722,0.006544984694978736,44.17702547221962,-42.38568945324425,-91.1875
1772312478.305254,89.13223204307769,1.6896197732392733,-6.695966385754602,-0.28557156748959367,1.3126236745688151,9.808051018683198,-0.012175237539269718,0.0007089184491789559,-0.00545415391248228,44.17702547221962,-42.38568945324425,-91.1875
1772312478.3435287,89.13249801355073,1.6816886020238866,-6.7094181580874555,-0.26761404304611586,1.3171173314326188,9.798667639583257,-0.0044397989900714155,-0.0007188083614371536,-0.008726646259971648,42.650735008114395,-42.63279756557863,-85.1875
1772312478.3650436,89.13249801355073,1.6816886020238866,-6.7094181580874555,-0.26761404304611586,1.3171173314326188,9.798667639583257,-0.0044397989900714155,-0.0007188083614371536,-0.008726646259971648,42.650735008114395,-42.63279756557863,-85.1875
1772312478.4222348,89.15171339789298,1.6725416573563643,-6.757667946581506,-0.29166506201764725,1.2937322945456784,9.799113329026099,0.01461523000325276,-0.009158220403685314,0.011999138607461015,42.650735008114395,-42.63279756557863,-85.1875
1772312478.442951,89.32377679441325,1.6372840519742953,-6.826650096959564,-0.315658027163917,1.219236101452109,9.786226868424555,0.014742178824701257,0.018199381898180333,0.0545415391248228,44.30029620327073,-42.672848950503386,-84.75
1772312478.4769127,89.36478489734644,1.6358850529656785,-6.820123416803125,-0.2840972698629339,1.2128045139590615,9.774108576255905,-0.016473252839505344,0.0024251575955957457,0.028361600344907856,44.30029620327073,-42.672848950503386,-84.75
1772312478.5240204,89.38650139312125,1.6373688467929957,-6.794307258947487,-0.30136042356439524,1.2976662436506523,9.769389099895182,-0.011744941513633245,-0.00029345729192977967,0.001090830782496456,42.72526409697721,-43.75706473352105,-84.0
1772312478.5398803,89.38650139312125,1.6373688467929957,-6.794307258947487,-0.30136042356439524,1.2976662436506523,9.769389099895182,-0.011744941513633245,-0.00029345729192977967,0.001090830782496456,42.72526409697721,-43.75706473352105,-84.0
1772312478.5551817,89.36254288721128,1.6186057988574933,-6.780887947831355,-0.3128488595106554,1.354140776792772,9.766248341097125,-0.018913245303488386,0.010874459550102104,-0.022907446432425576,42.72526409697721,-43.75706473352105,-84.0
1772312478.5713165,89.36254288721128,1.6186057988574933,-6.780887947831355,-0.3128488595106554,1.354140776792772,9.766248341097125,-0.018913245303488386,0.010874459550102104,-0.022907446432425576,42.72526409697721,-43.75706473352105,-84.0
1772312478.6076345,89.3531747681952,1.6121508241220939,-6.784708252796308,-0.33190497292719984,1.3759047041642036,9.767503312908913,0.002860398577361317,0.0071633588337260395,-0.006544984694978736,42.72526409697721,-43.75706473352105,-84.0
1772312478.6479762,89.35725923843222,1.604554641374954,-6.798468389969843,-0.3353347016789319,1.3433957420935496,9.768338482630703,-0.0027186148875255264,-0.0047283113258720965,-0.003272492347489368,43.81647018656195,-43.288635955526814,-85.1875
1772312478.680612,89.35346830960344,1.6062969666867943,-6.788513123616048,-0.337617147850629,1.3217613909844301,9.768894278751098,-0.013461180660050037,-0.0045914725921654045,0.0,43.81647018656195,-43.288635955526814,-85.1875
1772312478.7113132,89.35346830960344,1.6062969666867943,-6.788513123616048,-0.337617147850629,1.3217613909844301,9.768894278751098,-0.013461180660050037,-0.0045914725921654045,0.0,43.81647018656195,-43.288635955526814,-85.1875
1772312478.7449074,89.36812538838514,1.5858408024419113,-6.794354060142325,-0.32069294283522864,1.3152811758125391,9.769264154860572,-0.0034423682050917785,0.008019005928869886,0.011999138607461015,43.81647018656195,-43.288635955526814,-84.75
1772312478.7646005,89.37516281669174,1.5627223290733487,-6.80927122532893,-0.3133886753630826,1.3201902387274276,9.76951030327964,-0.010033647323345555,0.012312076272976412,0.009817477042468103,43.81647018656195,-43.288635955526814,-84.75
1772312478.7888625,89.37516281669174,1.5627223290733487,-6.80927122532893,-0.3133886753630826,1.3201902387274276,9.76951030327964,-0.010033647323345555,0.012312076272976412,0.009817477042468103,43.81647018656195,-43.288635955526814,-84.75
1772312478.818903,89.37801611887987,1.5682986931022773,-6.856119105102164,-0.303699585108975,1.3291700911070352,9.762983888888233,-0.008165734574834776,0.0024301025517248446,0.0,44.44822108053207,-43.01744034721436,-84.375
1772312478.8366013,89.37421008703444,1.5679904465679986,-6.855820710004663,-0.3025297396588903,1.347441514184854,9.758640633015576,-0.019905731132338924,-0.006170873004875503,-0.009817477042468103,44.44822108053207,-43.01744034721436,-84.375
1772312478.8541183,89.37483567516513,1.562429984656778,-6.834449221242806,-0.3263420838413163,1.3490446703783852,9.75909535645699,-0.027352657345736546,-0.008180569443222072,-0.003272492347489368,44.44822108053207,-43.01744034721436,-84.375
1772312478.8895044,89.37483567516513,1.562429984656778,-6.834449221242806,-0.3263420838413163,1.3490446703783852,9.75909535645699,-0.027352657345736546,-0.008180569443222072,-0.003272492347489368,44.44822108053207,-43.01744034721436,-84.375
1772312478.9391637,89.37516281669174,1.5627223290733487,-6.80927122532893,-0.2999638458550554,1.2517480998710426,9.796194198608172,-0.0017211841025458893,0.004009502964434943,-0.001090830782496456,44.1036296838211,-43.1653652244757,-83.5625
1772312478.966813,89.35962607332559,1.5577240827278664,-6.828910473707397,-0.28240942313942435,1.1869983190723137,9.820883063638561,0.011026133152196093,0.004733256282001195,-0.020725784867432664,44.1036296838211,-43.1653652244757,-83.5625
1772312478.9895754,89.35197966466241,1.5905011331512906,-6.8160483297335634,-0.2931592284070467,1.1961636476837372,9.833968115816273,0.01819938189818033,-0.014742178824701257,-0.004363323129985824,44.1036296838211,-43.1653652244757,-83.5625
1772312479.0080378,89.38423294523204,1.5750308487876115,-6.801647503376576,-0.2695745246526721,1.2154584111906954,9.84267607187093,-0.033948881420119426,0.004420019165555021,0.02181661564992912,43.414446890399155,-43.46121497899837,-85.5625
1772312479.0295386,89.36459141015736,1.5755813870533033,-6.817187206140029,-0.2815135607984368,1.1654718405112199,9.84847111935106,0.018614843055429507,0.00917800022820171,-0.015271630954950384,43.414446890399155,-43.46121497899837,-85.5625
1772312479.045497,89.36459141015736,1.5755813870533033,-6.817187206140029,-0.2815135607984368,1.1654718405112199,9.84847111935106,0.018614843055429507,0.00917800022820171,-0.015271630954950384,43.414446890399155,-43.46121497899837,-85.5625
1772312479.0793226,89.36459141015736,1.5755813870533033,-6.817187206140029,-0.2894588559856708,1.1322063361106103,9.802150983104376,0.007016630187761151,0.0030120721794553063,0.01090830782496456,43.414446890399155,-43.46121497899837,-85.5625
1772312479.1075265,89.37805883443293,1.5764921641051102,-6.817472082564682,-0.30794170087749717,1.1408070936088213,9.761290114740074,-0.010023757411087356,-0.004302960256364723,0.0,43.81647018656195,-43.288635955526814,-84.0
1772312479.1256154,89.37805883443293,1.5764921641051102,-6.817472082564682,-0.30794170087749717,1.1408070936088213,9.761290114740074,-0.010023757411087356,-0.004302960256364723,0.0,43.81647018656195,-43.288635955526814,-84.0
1772312479.163551,89.35873560521942,1.5752852828640027,-6.817494618598377,-0.32638954350145877,1.1438917337072274,9.734097663289438,-0.0071633588337260395,0.0028603985773613173,-0.002181661564992912,43.81647018656195,-43.288635955526814,-84.0
1772312479.1909995,89.38391421037079,1.576788185649026,-6.817164548222443,-0.23415520783073396,1.1908086822132775,9.736072060852543,0.006874846497925359,0.0005770246716013625,0.009817477042468103,43.242434517159744,-44.01116315242251,-84.0
1772312479.228426,89.36838595180933,1.5738395441940756,-6.827144965188279,-0.2992827441493152,1.236890066584989,9.737386000375322,-0.0032956395591268884,0.002146535172053263,-0.009817477042468103,43.242434517159744,-44.01116315242251,-84.0
1772312479.2639983,89.36838595180933,1.5738395441940756,-6.827144965188279,-0.2903688076165479,1.2899887906106948,9.738260412450066,-0.002146535172053263,-0.0032956395591268884,0.004363323129985824,44.93204709724085,-42.40165334219094,-84.0
1772312479.295626,89.36867271713176,1.5659369509985486,-6.8406121792762065,-0.31689925731049257,1.256785452193889,9.735497212210666,0.002288318861889054,0.005730687066980832,-0.00545415391248228,44.93204709724085,-42.40165334219094,-84.0
1772312479.312722,89.36865337621225,1.5618388121685627,-6.8599347116959875,-0.3099641119558436,1.2452452731426857,9.733658333318314,0.0037259355847633607,-0.0031489109131619983,0.004363323129985824,42.438104599718066,-43.88033546457216,-84.375
1772312479.3303144,89.36865337621225,1.5618388121685627,-6.8599347116959875,-0.3099641119558436,1.2452452731426857,9.733658333318314,0.0037259355847633607,-0.0031489109131619983,0.004363323129985824,42.438104599718066,-43.88033546457216,-84.375
1772312479.356986,89.36834502908668,1.5656430445788498,-6.865790194895317,-0.30534885019297436,1.2375654128963565,9.732434579957078,-0.006444550472288887,-0.0015794004127100982,0.004363323129985824,42.438104599718066,-43.88033546457216,-84.375
1772312479.3838232,89.36894380694919,1.5539365303505859,-6.873401463100823,-0.3009579110756885,1.229380693784406,9.741655520887353,0.0008605920512729446,-0.0020047514822174716,-0.004363323129985824,45.654574294136545,-42.97568901159315,-86.375
1772312479.4052258,89.36893556098403,1.5518875622097916,-6.883062431274402,-0.26422335315867584,1.2384487283141397,9.747791954071792,0.0005720797154722635,0.001432671766745208,0.007635815477475192,45.654574294136545,-42.97568901159315,-86.375
1772312479.4286432,89.36893556098403,1.5518875622097916,-6.883062431274402,-0.26422335315867584,1.2384487283141397,9.747791954071792,0.0005720797154722635,0.001432671766745208,0.007635815477475192,45.654574294136545,-42.97568901159315,-86.375
1772312479.4498281,89.3689276607162,1.5498386124925356,-6.892723296515599,-0.277997908145497,1.2571984615289855,9.751875681807586,0.002435047507853944,-0.00014178368983579112,-0.006544984694978736,45.654574294136545,-42.97568901159315,-86.375
1772312479.481792,89.36892010613502,1.5477896812872585,-6.902384058707276,-0.2871647206173652,1.2696761995352217,9.75459335699753,-0.004581582679907206,-0.003153855869291097,0.001090830782496456,43.832434075508644,-42.533614330505586,-86.0
1772312479.534201,89.36892010613502,1.5477896812872585,-6.902384058707276,-0.28798699603759464,1.2656845631621918,9.766437274599975,0.0,0.0,0.002181661564992912,43.832434075508644,-42.533614330505586,-86.0
1772312479.5588357,89.36951770522998,1.5340348444856866,-6.919655696751365,-0.3039035006827312,1.2564305038956978,9.774319269459173,-0.0008605920512729446,0.0020047514822174716,0.004363323129985824,44.1036296838211,-43.1653652244757,-84.75
1772312479.6254156,89.36951196212752,1.53198606345547,-6.92931616995246,-0.29999604712223354,1.241935201107593,9.782909760697637,-0.001432671766745208,0.0005720797154722634,-0.002181661564992912,44.1036296838211,-43.1653652244757,-84.75
1772312479.6664872,89.36365147045964,1.529633472513771,-6.939285670483844,-0.31059102012632356,1.2630273181020357,9.78193641324012,0.0010023757411087358,0.0004302960256364723,0.004363323129985824,42.92193061642684,-43.26454845954874,-85.5625
1772312479.7038224,89.36364648093901,1.5275841694221322,-6.948946151100107,-0.31368325439709666,1.267842312624417,9.781288661380145,-0.0010023757411087358,-0.0004302960256364723,-0.001090830782496456,42.92193061642684,-43.26454845954874,-85.5625
1772312479.7608438,89.363951197752,1.5217310428408493,-6.952751359758052,-0.30959338594641916,1.2736857056319455,9.780857589753195,0.0005720797154722635,0.001432671766745208,0.0,43.66854530930061,-42.94404455881584,-85.5625
1772312479.8182378,89.36394711398434,1.5196818158409404,-6.962411695453495,-0.3059868801771504,1.2670333107104954,9.780570716400845,-0.0020047514822174716,-0.0008605920512729446,-0.001090830782496456,43.66854530930061,-42.94404455881584,-85.5625
1772312479.8455672,89.3642527780569,1.5138287821841807,-6.966216873533581,-0.30226725690506273,1.259532358294712,9.780379805389442,0.0,0.0,0.0,45.21079966235253,-41.94191482146023,-85.1875
1772312479.9244978,89.36424959998266,1.5117796316628056,-6.975877064202677,-0.3011114231383513,1.2576144161608154,9.78025275624397,0.0005720797154722635,0.001432671766745208,-0.001090830782496456,45.21079966235253,-41.94191482146023,-85.1875
1772312479.9465106,89.36805206216397,1.5100400565334475,-6.985844134026687,-0.302096552615844,1.2519446552178977,9.780168206456889,0.0,0.0,0.001090830782496456,43.832434075508644,-42.533614330505586,-84.75
1772312480.0064726,89.36804953412295,1.5079911598740472,-6.995504676703901,-0.30978460509602196,1.2560735323988523,9.77676682781075,0.0,0.0,0.004363323129985824,43.832434075508644,-42.533614330505586,-84.75
1772312480.0647306,89.36804953412295,1.5079911598740472,-6.995504676703901,-0.30978460509602196,1.2560735323988523,9.77676682781075,0.0,0.0,0.004363323129985824,43.832434075508644,-42.533614330505586,-84.75
1772312480.1149764,89.3680473516844,1.5059422829688456,-7.005165115189861,-0.31094231623056157,1.2495996803171625,9.781193471732273,0.00014178368983579123,0.002435047507853944,0.004363323129985824,43.81647018656195,-43.288635955526814,-83.5625
1772312480.1520464,89.36835565381155,1.5000893428400985,-7.008970526361965,-0.3169908959379108,1.2575868357051776,9.784139353813195,-0.0004302960256364723,0.0010023757411087358,-0.002181661564992912,43.81647018656195,-43.288635955526814,-83.5625
1772312480.1827953,89.36835565381155,1.5000893428400985,-7.008970526361965,-0.3169908959379108,1.2575868357051776,9.784139353813195,-0.0004302960256364723,0.0010023757411087358,-0.002181661564992912,43.81647018656195,-43.288635955526814,-83.5625
1772312480.2194881,89.36835565381155,1.5000893428400985,-7.008970526361965,-0.3126641643786169,1.2519263007327646,9.78609980543039,0.0015744554565809993,0.0018629677923816803,0.001090830782496456,43.832434075508644,-42.533614330505586,-84.75
1772312480.2459219,89.36835437694644,1.4980405433902613,-7.018630819287146,-0.3097847728586652,1.2481592779409425,9.787404464081952,-0.0004302960256364723,0.0010023757411087358,-0.002181661564992912,43.832434075508644,-42.533614330505586,-84.75
1772312480.294958,89.36835437694644,1.4980405433902613,-7.018630819287146,-0.3097847728586652,1.2481592779409425,9.787404464081952,-0.0004302960256364723,0.0010023757411087358,-0.002181661564992912,43.832434075508644,-42.533614330505586,-84.75
1772312480.332564,89.36835344564345,1.4959917639804226,-7.028291007771242,-0.30045650404711394,1.246618450046427,9.783279254857915,-0.00028851233580068114,0.0034374232489626797,0.0,43.66854530930061,-42.94404455881584,-85.1875
1772312480.379386,89.36835344564345,1.4959917639804226,-7.028291007771242,-0.3029802452464996,1.2477008205094406,9.772146972354307,0.0,0.0,-0.001090830782496456,44.73538057779121,-42.894169616163246,-84.75
1772312480.4324892,89.36835344564345,1.4959917639804226,-7.028291007771242,-0.30465976682265433,1.2484211259617057,9.764738562703899,-0.00014178368983579123,-0.002435047507853944,0.0,44.73538057779121,-42.894169616163246,-84.75
1772312480.46661,89.36835344564345,1.4959917639804226,-7.028291007771242,-0.3044579357001516,1.2458266232861708,9.76984368396087,-0.0004302960256364723,0.0010023757411087358,0.0,44.80877636618973,-42.11449384493179,-84.75
1772312480.5142288,89.36835344564345,1.4959917639804226,-7.028291007771242,-0.30432361934272734,1.2441000107380962,9.773241085129444,0.00028851233580068114,-0.0034374232489626797,0.001090830782496456,44.80877636618973,-42.11449384493179,-84.75
1772312480.5747974,89.36835344564345,1.4959917639804226,-7.028291007771242,-0.30432361934272734,1.2441000107380962,9.773241085129444,0.00028851233580068114,-0.0034374232489626797,0.001090830782496456,44.80877636618973,-42.11449384493179,-84.75
1772312480.6240695,89.36835344564345,1.4959917639804226,-7.028291007771242,-0.3034506100647686,1.2546229162860703,9.780351754702924,0.0,0.0,-0.002181661564992912,43.414446890399155,-43.46121497899837,-84.375
1772312480.649062,89.36835344564345,1.4959917639804226,-7.028291007771242,-0.3034506100647686,1.2546229162860703,9.780351754702924,0.0,0.0,-0.002181661564992912,43.414446890399155,-43.46121497899837,-84.375
1772312480.6752305,89.36835344564345,1.4959917639804226,-7.028291007771242,-0.30540757932267454,1.245560453590871,9.783579200532758,-0.00014178368983579123,-0.002435047507853944,0.001090830782496456,45.079971974502186,-42.74624473890191,-85.1875
1772312480.6995578,89.36835344564345,1.4959917639804226,-7.028291007771242,-0.3067099205030319,1.2395294859015575,9.785727029679581,0.0005720797154722635,0.001432671766745208,0.003272492347489368,45.079971974502186,-42.74624473890191,-85.1875
1772312480.7139177,89.36835344564345,1.4959917639804226,-7.028291007771242,-0.3067099205030319,1.2395294859015575,9.785727029679581,0.0005720797154722635,0.001432671766745208,0.003272492347489368,45.079971974502186,-42.74624473890191,-85.1875
1772312480.7379365,89.36835344564345,1.4959917639804226,-7.028291007771242,-0.3067099205030319,1.2395294859015575,9.785727029679581,0.0005720797154722635,0.001432671766745208,0.003272492347489368,45.079971974502186,-42.74624473890191,-85.1875
1772312480.7682354,89.36835344564345,1.4959917639804226,-7.028291007771242,-0.3062570800405071,1.2324420863669645,9.790501497691286,0.0010023757411087358,0.0004302960256364723,0.0,44.58745570052987,-42.54957821945227,-85.5625
1772312480.7955325,89.36835344564345,1.4959917639804226,-7.028291007771242,-0.30114270199245197,1.2589140342593028,9.797023964526094,0.0010023757411087358,0.0004302960256364723,0.00545415391248228,44.58745570052987,-42.54957821945227,-85.5625
1772312480.8209326,89.36835344564345,1.4959917639804226,-7.028291007771242,-0.3069455501892487,1.2470966106971801,9.80136459334393,0.0027186148875255264,0.0047283113258720965,-0.00545415391248228,43.1432512820867,-42.829464085028256,-85.5625
1772312480.8421247,89.36835344564345,1.4959917639804226,-7.028291007771242,-0.3069455501892487,1.2470966106971801,9.80136459334393,0.0027186148875255264,0.0047283113258720965,-0.00545415391248228,43.1432512820867,-42.829464085028256,-85.5625
1772312480.859363,89.36835344564345,1.4959917639804226,-7.028291007771242,-0.31212681481210364,1.242306105233537,9.8042532333342,0.002435047507853944,-0.00014178368983579112,-0.001090830782496456,43.1432512820867,-42.829464085028256,-85.5625
1772312480.8771157,89.36835344564345,1.4959917639804226,-7.028291007771242,-0.31557488854009547,1.239118077360935,9.79614025585754,-0.001432671766745208,0.0005720797154722634,0.004363323129985824,43.1432512820867,-42.829464085028256,-85.5625
1772312480.902893,89.36835344564345,1.4959917639804226,-7.028291007771242,-0.31479568518088835,1.2383160143942715,9.790741159974722,-0.0030071272233262074,-0.001290888076909417,-0.002181661564992912,44.30029620327073,-42.672848950503386,-85.1875
1772312480.9180498,89.36835344564345,1.4959917639804226,-7.028291007771242,-0.31479568518088835,1.2383160143942715,9.790741159974722,-0.0030071272233262074,-0.001290888076909417,-0.002181661564992912,44.30029620327073,-42.672848950503386,-85.1875
1772312480.9321764,89.36835344564345,1.4959917639804226,-7.028291007771242,-0.30856420820203234,1.2329540686041787,9.787148121976559,0.0,0.0,0.004363323129985824,44.30029620327073,-42.672848950503386,-85.1875
1772312480.9470656,89.36835344564345,1.4959917639804226,-7.028291007771242,-0.30856420820203234,1.2329540686041787,9.787148121976559,0.0,0.0,0.004363323129985824,44.30029620327073,-42.672848950503386,-85.1875
1772312480.961652,89.36835344564345,1.4959917639804226,-7.028291007771242,-0.30309769591281405,1.2263118956700527,9.784756995325646,0.005872470756816623,0.00014672864596488984,-0.003272492347489368,44.30029620327073,-42.672848950503386,-85.1875
1772312480.9794664,89.36835344564345,1.4959917639804226,-7.028291007771242,-0.30309769591281405,1.2263118956700527,9.784756995325646,0.005872470756816623,0.00014672864596488984,-0.003272492347489368,44.30029620327073,-42.672848950503386,-85.1875
1772312481.0012817,89.36835344564345,1.4959917639804226,-7.028291007771242,-0.30077932701923127,1.2249654616880037,9.783165727250097,0.0010023757411087358,0.0004302960256364723,-0.001090830782496456,43.58702591387071,-43.86323827516117,-86.0
1772312481.0420678,89.36835344564345,1.4959917639804226,-7.028291007771242,-0.2979169444484809,1.220995567005925,9.782106756121449,0.001290888076909417,-0.0030071272233262074,-0.001090830782496456,43.58702591387071,-43.86323827516117,-86.0
1772312481.0636759,89.36835344564345,1.4959917639804226,-7.028291007771242,-0.2979169444484809,1.220995567005925,9.782106756121449,0.001290888076909417,-0.0030071272233262074,-0.001090830782496456,43.58702591387071,-43.86323827516117,-86.0
1772312481.1139336,89.36835344564345,1.4959917639804226,-7.028291007771242,-0.29997066273240036,1.227575220164666,9.781402022664816,-0.0008605920512729446,0.0020047514822174716,0.0,43.66854530930061,-42.94404455881584,-84.75
1772312481.1381395,89.36835344564345,1.4959917639804226,-7.028291007771242,-0.3044112472164907,1.2306343718723178,9.780933030421815,-0.001432671766745208,0.0005720797154722634,-0.001090830782496456,43.66854530930061,-42.94404455881584,-84.75
1772312481.182532,89.36835344564345,1.4959917639804226,-7.028291007771242,-0.3044112472164907,1.2306343718723178,9.780933030421815,-0.001432671766745208,0.0005720797154722634,-0.001090830782496456,43.66854530930061,-42.94404455881584,-84.75
1772312481.3369684,89.37451902584857,1.4945451909897014,-7.012466170385022,-0.29928758560256913,1.2484497269606807,9.77349277986967,0.00028851233580068114,-0.0034374232489626797,-0.002181661564992912,44.54740431560511,-44.19913941460861,-84.375
1772312481.3696868,89.37451902584857,1.4945451909897014,-7.012466170385022,-0.3013327631437668,1.2638540144097836,9.755598847449761,-0.003579206938798471,-0.002723559843654625,0.003272492347489368,43.832434075508644,-42.533614330505586,-84.75
1772312481.4563403,89.37451902584857,1.4945451909897014,-7.012466170385022,-0.29827008594046855,1.221399857165077,9.743690635312634,0.0018629677923816803,-0.0015744554565809991,0.0,43.832434075508644,-42.533614330505586,-84.75
1772312481.492252,89.37451902584857,1.4945451909897014,-7.012466170385022,-0.29827008594046855,1.221399857165077,9.743690635312634,0.0018629677923816803,-0.0015744554565809991,0.0,43.832434075508644,-42.533614330505586,-84.75
1772312481.588056,89.37451902584857,1.4945451909897014,-7.012466170385022,-0.2985719800607275,1.2394501010956762,9.757241072826616,0.004298015300235624,-0.0017162391464167904,0.0,44.30029620327073,-42.672848950503386,-84.75
1772312481.6986523,89.37451902584857,1.4945451909897014,-7.012466170385022,-0.3039838174143187,1.2597395414001915,9.76324222801527,0.001432671766745208,-0.0005720797154722634,-0.004363323129985824,44.76872498126497,-43.76405504008813,-84.75
1772312481.7412813,89.37451902584857,1.4945451909897014,-7.012466170385022,-0.3053276328897022,1.2564327602331764,9.765502778233422,-0.002435047507853944,0.00014178368983579112,-0.001090830782496456,43.266522013137816,-43.1166235822874,-84.75
1772312481.7574062,89.37451902584857,1.4945451909897014,-7.012466170385022,-0.3035828591372706,1.2480844184903372,9.77704248427356,0.0015744554565809993,0.0018629677923816803,0.0,43.266522013137816,-43.1166235822874,-84.75
1772312481.7924252,89.37451902584857,1.4945451909897014,-7.012466170385022,-0.3024217316954273,1.2425286903175654,9.78137691802899,0.004009502964434943,0.0017211841025458893,0.003272492347489368,43.266522013137816,-43.1166235822874,-84.75
1772312481.8088336,89.37451902584857,1.4945451909897014,-7.012466170385022,-0.3024217316954273,1.2425286903175654,9.78137691802899,0.004009502964434943,0.0017211841025458893,0.003272492347489368,43.266522013137816,-43.1166235822874,-84.75
1772312481.8332267,89.37451902584857,1.4945451909897014,-7.012466170385022,-0.30684965173783196,1.2496837299676649,9.776145714157144,0.0008605920512729446,-0.0020047514822174716,0.0,43.266522013137816,-43.1166235822874,-84.75
1772312481.926222,89.37451902584857,1.4945451909897014,-7.012466170385022,-0.3068000236507519,1.2572079798409093,9.770744792412135,0.0018629677923816803,-0.0015744554565809991,0.002181661564992912,44.80877636618973,-42.11449384493179,-84.75
1772312481.9774725,89.37451902584857,1.4945451909897014,-7.012466170385022,-0.3054474627432337,1.2591414261724967,9.773840762737718,0.0,0.0,0.0,44.80877636618973,-42.11449384493179,-84.75
1772312482.027364,89.37451902584857,1.4945451909897014,-7.012466170385022,-0.3054474627432337,1.2591414261724967,9.773840762737718,0.0,0.0,0.0,44.80877636618973,-42.11449384493179,-84.75
1772312482.0658567,89.37451902584857,1.4945451909897014,-7.012466170385022,-0.3058668825383242,1.263501971015836,9.77590109640514,0.002435047507853944,-0.00014178368983579112,-0.001090830782496456,44.44822108053207,-43.01744034721436,-85.1875
1772312482.1003346,89.37451902584857,1.4945451909897014,-7.012466170385022,-0.3030721438190524,1.2677233988685492,9.770582002030734,-0.003867719274599152,0.0007138634053080545,0.003272492347489368,44.44822108053207,-43.01744034721436,-85.1875
1772312482.1475797,89.37451902584857,1.4945451909897014,-7.012466170385022,-0.3030721438190524,1.2677233988685492,9.770582002030734,-0.003867719274599152,0.0007138634053080545,0.003272492347489368,44.44822108053207,-43.01744034721436,-85.1875
1772312482.1787744,89.37451902584857,1.4945451909897014,-7.012466170385022,-0.301212276420654,1.2705327119480907,9.767042204142745,0.002865343533490416,-0.0011441594309445269,0.0,43.989049210033514,-43.69065925168962,-85.1875
1772312482.202493,89.37451902584857,1.4945451909897014,-7.012466170385022,-0.2999745554431001,1.2724022784204423,9.764686508190422,0.001432671766745208,-0.0005720797154722634,-0.002181661564992912,43.989049210033514,-43.69065925168962,-85.1875
1772312482.2353904,89.37451902584857,1.4945451909897014,-7.012466170385022,-0.2999745554431001,1.2724022784204423,9.764686508190422,0.001432671766745208,-0.0005720797154722634,-0.002181661564992912,43.989049210033514,-43.69065925168962,-85.1875
1772312482.312065,89.37451902584857,1.4945451909897014,-7.012466170385022,-0.3019639692865552,1.2597009056230755,9.768753942526144,0.0022932638180181526,-0.002576831197689735,-0.001090830782496456,44.13697408729485,-44.035250648400584,-84.75
1772312482.4148047,89.37451902584857,1.4945451909897014,-7.012466170385022,-0.3083768384014846,1.2581613724928256,9.762480539255884,0.0,0.0,-0.001090830782496456,44.30029620327073,-42.672848950503386,-85.0625
1772312482.4871218,89.37451902584857,1.4945451909897014,-7.012466170385022,-0.31396406513097674,1.2602106883000348,9.758305659458033,-0.0010023757411087358,-0.0004302960256364723,0.002181661564992912,44.30029620327073,-42.672848950503386,-85.0625
1772312482.5211213,89.37451902584857,1.4945451909897014,-7.012466170385022,-0.31768230210604176,1.261574485077375,9.765562658710984,-0.0008605920512729446,0.0020047514822174716,-0.001090830782496456,45.079971974502186,-42.74624473890191,-84.25
1772312482.5796945,89.37451902584857,1.4945451909897014,-7.012466170385022,-0.31768230210604176,1.261574485077375,9.765562658710984,-0.0008605920512729446,0.0020047514822174716,-0.001090830782496456,45.079971974502186,-42.74624473890191,-84.25
1772312482.657355,89.37451902584857,1.4945451909897014,-7.012466170385022,-0.31444382142994354,1.257653894752678,9.770392110647828,-0.0004302960256364723,0.0010023757411087358,-0.001090830782496456,44.73538057779121,-42.894169616163246,-84.75
1772312482.6946838,89.37451902584857,1.4945451909897014,-7.012466170385022,-0.31444382142994354,1.257653894752678,9.770392110647828,-0.0004302960256364723,0.0010023757411087358,-0.001090830782496456,44.73538057779121,-42.894169616163246,-84.75
1772312482.730956,89.37451902584857,1.4945451909897014,-7.012466170385022,-0.31228864871619977,1.255044785687456,9.773606056963287,-0.0004302960256364723,0.0010023757411087358,-0.001090830782496456,44.73538057779121,-42.894169616163246,-84.75
1772312482.7848248,89.37451902584857,1.4945451909897014,-7.012466170385022,-0.3060262235046515,1.2590213785977842,9.775744902334091,0.0010023757411087358,0.0004302960256364723,-0.001090830782496456,43.989049210033514,-43.69065925168962,-85.1875
1772312482.8516827,89.37451902584857,1.4945451909897014,-7.012466170385022,-0.30185864948223945,1.261667756758154,9.777168280035893,0.0,0.0,0.001090830782496456,43.989049210033514,-43.69065925168962,-85.1875
1772312482.903707,89.37451902584857,1.4945451909897014,-7.012466170385022,-0.30185864948223945,1.261667756758154,9.777168280035893,0.0,0.0,0.001090830782496456,43.989049210033514,-43.69065925168962,-85.1875
1772312482.9778526,89.37451902584857,1.4945451909897014,-7.012466170385022,-0.30215903343285494,1.2621093578919507,9.781460633703592,-0.001290888076909417,0.0030071272233262074,0.0,44.44822108053207,-43.01744034721436,-84.75
1772312483.0300832,89.37451902584857,1.4945451909897014,-7.012466170385022,-0.30543279350415936,1.261083704543536,9.780972035413393,0.00014178368983579123,0.002435047507853944,0.002181661564992912,44.44822108053207,-43.01744034721436,-84.75
1772312483.0750616,89.37451902584857,1.4945451909897014,-7.012466170385022,-0.3076114442613163,1.2604011436974645,9.780646878709266,0.001432671766745208,-0.0005720797154722634,-0.001090830782496456,43.414446890399155,-43.46121497899837,-84.375
1772312483.1544163,89.37451902584857,1.4945451909897014,-7.012466170385022,-0.30466792012545374,1.2581925831413785,9.780430490554908,-0.0004302960256364723,0.0010023757411087358,0.0,43.414446890399155,-43.46121497899837,-84.375
1772312483.251014,89.37451902584857,1.4945451909897014,-7.012466170385022,-0.30095471375662625,1.2611162026401679,9.783631598362716,-0.0015744554565809993,-0.0018629677923816803,0.0,43.95570480655976,-42.820773827764725,-85.5625
1772312483.3216336,89.37451902584857,1.4945451909897014,-7.012466170385022,-0.2984836163974046,1.2630618387576427,9.785761899850096,-0.002435047507853944,0.00014178368983579112,0.001090830782496456,43.95570480655976,-42.820773827764725,-85.5625
1772312483.4210317,89.37451902584857,1.4945451909897014,-7.012466170385022,-0.29683912870880885,1.2643566378596425,9.78717959169292,-0.0004302960256364723,0.0010023757411087358,0.0,44.73538057779121,-42.894169616163246,-85.1875
1772312483.531963,89.28728253153385,1.4831228167573252,-7.042993674422071,-0.3023335825038794,1.2687135537661334,9.788750910593944,-0.005730687066980832,0.0022883188618890537,-0.03599741582238305,44.73538057779121,-42.894169616163246,-84.25
1772312483.6187472,89.18596570826465,1.4824371611896179,-7.065598112134272,-0.29371864043136126,1.3142408237457803,9.789168744953512,0.0017261290586749875,-0.01231702122910551,-0.013089969389957472,44.73538057779121,-42.894169616163246,-84.25
1772312483.7072358,89.18596570826465,1.4824371611896179,-7.065598112134272,-0.29371864043136126,1.3142408237457803,9.789168744953512,0.0017261290586749875,-0.01231702122910551,-0.013089969389957472,44.73538057779121,-42.894169616163246,-84.25
1772312483.8653703,89.05332092710952,1.475321629902518,-7.133295939127,-0.2859264171907445,1.3687928566231573,9.72162246621703,0.005305335997473458,-0.009593461385450884,-0.020725784867432664,43.832434075508644,-42.533614330505586,-84.0
1772312483.92602,89.03811906222505,1.4685135189139915,-7.137391334286471,-0.3100146223302359,1.3509583186302394,9.680938392655465,0.0021514801281823613,-0.005011878705543678,-0.003272492347489368,43.832434075508644,-42.533614330505586,-84.0
1772312483.976826,89.02199283957677,1.4689069428036436,-7.178388562061538,-0.318127849947994,1.3206464853747253,9.717420718610192,-0.00917305527207261,0.01030732479075894,0.011999138607461015,44.17702547221962,-42.38568945324425,-84.0
1772312484.0149703,89.01675895558014,1.4589379131373208,-7.176622585889641,-0.31868376638490853,1.2807116175325253,9.775150416071973,0.012175237539269718,-0.0007089184491789559,-0.015271630954950384,44.17702547221962,-42.38568945324425,-84.0
1772312484.0498402,89.01675895558014,1.4589379131373208,-7.176622585889641,-0.31868376638490853,1.2807116175325253,9.775150416071973,0.012175237539269718,-0.0007089184491789559,-0.015271630954950384,44.17702547221962,-42.38568945324425,-84.0
1772312484.0704007,89.01675895558014,1.4589379131373208,-7.176622585889641,-0.31868376638490853,1.2807116175325253,9.775150416071973,0.012175237539269718,-0.0007089184491789559,-0.015271630954950384,44.17702547221962,-42.38568945324425,-84.0
1772312484.1507058,88.99745336789614,1.4576747259443783,-7.176608458490319,-0.3159798646560033,1.2554549430551933,9.813568884849813,-0.005583958421015943,-0.00358415189492757,-0.020725784867432664,42.52746427706328,-42.34563806831948,-84.0
1772312484.1832292,88.99745336789614,1.4576747259443783,-7.176608458490319,-0.2869505170586539,1.2430554642703002,9.809029941293176,-0.005872470756816623,-0.00014672864596488984,-0.001090830782496456,42.52746427706328,-42.34563806831948,-84.0
1772312484.254171,88.97327164095053,1.4322511713084145,-7.217215212060635,-0.26103414066193575,1.2194344601118154,9.802664213352235,-0.006586334162124678,-0.004014447920564042,0.01090830782496456,43.414446890399155,-43.46121497899837,-83.1875
1772312484.306768,88.94809151437532,1.4327435026674475,-7.207855687530373,-0.24378708167481336,1.2037149457082494,9.751596328614909,-0.00873286933417794,-0.00731008747969093,-0.019634954084936207,43.414446890399155,-43.46121497899837,-83.1875
1772312484.3398833,88.94809151437532,1.4327435026674475,-7.207855687530373,-0.24378708167481336,1.2037149457082494,9.751596328614909,-0.00873286933417794,-0.00731008747969093,-0.019634954084936207,43.414446890399155,-43.46121497899837,-83.1875
1772312484.395583,88.96741496590388,1.42984659712534,-7.227179139058938,-0.26570216766444144,1.2116817678506242,9.71761122178787,0.008449301954506359,0.0024399924639830427,0.015271630954950384,43.266522013137816,-43.1166235822874,-84.0
1772312484.502606,88.96773822110279,1.4239812170250326,-7.230963534024586,-0.2965556101901513,1.2464026440979759,9.711720071369589,0.009021381669978621,0.0038726642307282504,0.001090830782496456,43.266522013137816,-43.1166235822874,-84.0
1772312484.5241745,89.01808998781617,1.4250919280499394,-7.2400346965325975,-0.3170882315354754,1.2695089993829871,9.721180023403964,0.00544217473118015,0.0011491043870736255,0.011999138607461015,43.95570480655976,-42.820773827764725,-84.0
1772312484.5491202,89.03740649607822,1.424288295618145,-7.249709480943732,-0.30923545632263044,1.2941227584999007,9.714095068978974,-0.011598212867668357,-0.006165928048746404,0.00545415391248228,43.95570480655976,-42.820773827764725,-84.0
1772312484.5927265,89.12782929772797,1.4334892217559487,-7.279562746532852,-0.30621431903288526,1.2752807355251405,9.683945554338905,0.0017211841025458893,-0.004009502964434943,0.0272707695624114,43.39035939442108,-44.35575454913348,-82.75
1772312484.7049515,89.20302576547859,1.4420979914005227,-7.2845365304812875,-0.3050425187961886,1.245693035930849,9.685970834045131,-0.005158607351508569,0.0037209906286342614,0.03490658503988659,42.61068362318963,-44.282358760734965,-82.75
1772312484.7703009,89.20302576547859,1.4420979914005227,-7.2845365304812875,-0.3050425187961886,1.245693035930849,9.685970834045131,-0.005158607351508569,0.0037209906286342614,0.03490658503988659,42.61068362318963,-44.282358760734965,-82.75
1772312484.8314836,89.3341104218701,1.456000795943793,-7.304093449945461,-0.2858195513824628,1.2339199561868,9.67059307652917,-0.0064494954284179855,0.006728117851960469,0.039269908169872414,42.61068362318963,-44.282358760734965,-82.75
1772312484.8575888,89.44413334352606,1.4668877051762403,-7.308738072010891,-0.31921057025144134,1.3336701298997977,9.717226249707537,0.006156038136488206,0.0050168236616727774,0.03381575425739013,42.47985593533928,-45.086688678176635,-80.75
1772312484.8851433,89.50414835308197,1.4666767179310072,-7.327452620040735,-0.34584047625085673,1.4272826874246711,9.758295440653018,-0.006733062808089567,0.0018580228362525817,0.02399827721492203,42.47985593533928,-45.086688678176635,-80.75
1772312484.9192827,89.55416581632667,1.4757509649694915,-7.323023917606542,-0.36971009703328306,1.4869417307967912,9.805697198698232,0.006444550472288887,0.0015794004127100982,0.015271630954950384,42.61068362318963,-44.282358760734965,-80.0
1772312484.9742007,89.63000546149001,1.4747468166506545,-7.325910759804626,-0.3688910754479078,1.5046923624042252,9.837242539164988,0.002430102551724844,0.008165734574834776,0.03490658503988659,42.61068362318963,-44.282358760734965,-80.0
1772312485.0161135,89.63000546149001,1.4747468166506545,-7.325910759804626,-0.3688910754479078,1.5046923624042252,9.837242539164988,0.002430102551724844,0.008165734574834776,0.03490658503988659,42.61068362318963,-44.282358760734965,-80.0
1772312485.0742462,89.82755450817561,1.48733122329549,-7.323083166938836,-0.3158117363005348,1.425466288146173,9.82983879060513,-0.0064494954284179855,0.006728117851960469,0.026179938779914945,42.356585204288166,-44.799529180917496,-81.1875
1772312485.124292,89.82755450817561,1.48733122329549,-7.323083166938836,-0.3158117363005348,1.425466288146173,9.82983879060513,-0.0064494954284179855,0.006728117851960469,0.026179938779914945,42.356585204288166,-44.799529180917496,-81.1875
1772312485.1551847,89.86207361508308,1.4914094124062156,-7.338273951815116,-0.3105599128420709,1.3605743430882076,9.789751376460709,0.002288318861889054,0.005730687066980832,0.0,43.02980410876342,-45.258701051416054,-81.1875
1772312485.1983752,89.89691266159022,1.4936709349242587,-7.3379585959065,-0.2749916058838383,1.3020353530708668,9.763073650153354,0.002865343533490416,-0.0011441594309445269,0.019634954084936207,43.02980410876342,-45.258701051416054,-81.1875
1772312485.222257,89.89691266159022,1.4936709349242587,-7.3379585959065,-0.2749916058838383,1.3020353530708668,9.763073650153354,0.002865343533490416,-0.0011441594309445269,0.019634954084936207,43.02980410876342,-45.258701051416054,-81.1875
1772312485.30569,90.04827009128914,1.4955414009513521,-7.349547112338639,-0.30491157739424296,1.2691956968198403,9.745319921305539,0.01231702122910551,0.0017261290586749875,0.039269908169872414,41.79067314191734,-45.38253843269931,-80.75
1772312485.3358655,90.1483113113639,1.5116800803419908,-7.350242837776034,-0.3204144282622048,1.2201113412264548,9.75023057161606,-0.005583958421015943,-0.00358415189492757,0.019634954084936207,41.79067314191734,-45.38253843269931,-80.75
1772312485.3559432,90.16381043067341,1.5106687105713736,-7.359590108534111,-0.35052441188586936,1.2335541195024118,9.753498554542153,-0.004298015300235624,0.0017162391464167904,0.015271630954950384,42.898976420913066,-46.063030968857724,-80.375
1772312485.3855844,90.21832459850594,1.5064312681614536,-7.372782497360628,-0.3705622696368625,1.2425001382793888,9.755673360673708,0.009168110315943513,-0.0019998065260883723,0.031634092692397225,42.898976420913066,-46.063030968857724,-80.375
1772312485.423374,90.21832459850594,1.5064312681614536,-7.372782497360628,-0.3705622696368625,1.2425001382793888,9.755673360673708,0.009168110315943513,-0.0019998065260883723,0.031634092692397225,42.898976420913066,-46.063030968857724,-80.375
1772312485.467032,90.33418691025169,1.5177448000210976,-7.376970160410568,-0.3461565293715109,1.304698128315476,9.75712066986008,4.944956129098699e-06,-0.008307518264670567,0.028361600344907856,42.11117704265023,-46.12915312557308,-78.75
1772312485.4974024,90.43454652876886,1.5261338289643698,-7.391141787427584,-0.3483579293009723,1.3381729920677274,9.761428949663427,0.002146535172053263,0.0032956395591268884,0.039269908169872414,42.11117704265023,-46.12915312557308,-78.75
1772312485.530252,90.43454652876886,1.5261338289643698,-7.391141787427584,-0.3483579293009723,1.3381729920677274,9.761428949663427,0.002146535172053263,0.0032956395591268884,0.039269908169872414,42.11117704265023,-46.12915312557308,-78.75
1772312485.5638292,90.48357827168034,1.544823624335045,-7.4137411709879535,-0.3318297429510954,1.3863757012541011,9.764296061745917,0.004870095015707888,-0.00028356737967158224,0.007635815477475192,41.19226665142098,-46.52361946493665,-78.75
1772312485.597968,90.48357827168034,1.544823624335045,-7.4137411709879535,-0.3318297429510954,1.3863757012541011,9.764296061745917,0.004870095015707888,-0.00028356737967158224,0.007635815477475192,41.19226665142098,-46.52361946493665,-78.75
1772312485.6419199,90.54327034041731,1.5526001806041507,-7.418874361215701,-0.32213478947053575,1.3960523164021736,9.766204092809073,0.0,0.0,0.025089107997418487,41.19226665142098,-46.52361946493665,-78.75
1772312485.6855707,90.67010221528139,1.5433314915129228,-7.428776007841043,-0.31568290622894984,1.4024919956883422,9.777509201289458,0.0012859431207803182,0.00530039104134436,0.031634092692397225,41.46346225973343,-47.155370358906765,-79.1875
1772312485.7236352,90.67010221528139,1.5433314915129228,-7.428776007841043,-0.31568290622894984,1.4024919956883422,9.777509201289458,0.0012859431207803182,0.00530039104134436,0.031634092692397225,41.46346225973343,-47.155370358906765,-79.1875
1772312485.7453594,90.72012720070659,1.55433938160187,-7.414540410976691,-0.3249738874713865,1.353622037818052,9.785032624696818,-0.00358415189492757,0.005583958421015943,0.018544123302439753,41.46346225973343,-47.155370358906765,-79.1875
1772312485.7799802,90.81565627286217,1.5489286230235169,-7.421249073302979,-0.3285178637612703,1.3149519109532162,9.776658932102992,-0.01074256577252451,0.00013683873370669262,0.04036073895236887,41.06143896357063,-47.32794938237833,-77.1875
1772312485.7963643,90.86565022064899,1.5503016200005153,-7.455417406322865,-0.3308763403933787,1.289217373498289,9.74767055127084,0.043679181539276996,0.011627882604442948,0.025089107997418487,41.06143896357063,-47.32794938237833,-77.1875
1772312485.8241715,90.90082556788958,1.5448766843853876,-7.4686328501292145,-0.3825881711041793,1.3888979267874346,9.75179488959971,0.0004204061133782748,0.0156126607882324,0.03599741582238305,41.06143896357063,-47.32794938237833,-77.1875
1772312485.8568268,90.97212884630913,1.5552658400262989,-7.46338802928217,-0.4108541009678613,1.4578732894365178,9.78130048434425,0.0018629677923816803,-0.0015744554565809991,0.03381575425739013,41.19226665142098,-46.52361946493665,-77.1875
1772312485.9105113,91.00988985535308,1.5733754550943821,-7.461382171141227,-0.4041436620776092,1.427363965050017,9.800936128047653,0.0047283113258720965,-0.002718614887525526,0.019634954084936207,41.19226665142098,-46.52361946493665,-77.1875
1772312485.950607,91.13087532782181,1.596713925923806,-7.45730051480362,-0.3869325542915612,1.3943301288837897,9.800622982758478,0.0007188083614371534,-0.0044397989900714155,0.05890486225480862,40.55295880065163,-47.88630448794992,-78.75
1772312485.997355,91.1757469224161,1.5938761154782788,-7.460813599058862,-0.36361811265768557,1.3701573660217832,9.800414588066594,-0.0124637498750704,0.004146341698141635,0.026179938779914945,40.55295880065163,-47.88630448794992,-78.75
1772312486.0469327,91.23543217375106,1.5998168753002218,-7.475564962377921,-0.2958470277591858,1.376502739853696,9.827036797385622,0.007735438549198304,-0.001427726810616109,0.0272707695624114,39.96182594183843,-47.459910370692974,-76.75
1772312486.0854156,91.33578098174004,1.6102853501064534,-7.479905547591232,-0.24414845796211435,1.3653562257179719,9.844753580297871,-0.00358415189492757,0.005583958421015943,0.04254240051736178,39.96182594183843,-47.459910370692974,-76.75
1772312486.130363,91.42644954631398,1.6219766259215889,-7.474549784263281,-0.22203906890374187,1.3526602091955748,9.85319878970922,-4.944956129098699e-06,0.008307518264670567,0.020725784867432664,39.559802645675624,-47.63248939416454,-75.5625
1772312486.1555214,91.44582082402472,1.621421442130582,-7.484212619262282,-0.25343338607862986,1.3244181424744896,9.775191189550318,0.013744748039721618,0.009461567607873292,0.015271630954950384,39.559802645675624,-47.63248939416454,-75.5625
1772312486.1718798,91.43575959184147,1.6209186077906121,-7.509398125195397,-0.23874402847221934,1.29905602083963,9.7132426679246,0.022047321348263087,0.017774030828672956,-0.018544123302439753,39.559802645675624,-47.63248939416454,-75.5625
1772312486.2016428,91.43575959184147,1.6209186077906121,-7.509398125195397,-0.23874402847221934,1.29905602083963,9.7132426679246,0.022047321348263087,0.017774030828672956,-0.018544123302439753,39.559802645675624,-47.63248939416454,-75.5625
1772312486.2306776,91.48674772807612,1.6126550816340741,-7.516483176414591,-0.2869824275539505,1.3410007383521603,9.682051953914973,-0.0071633588337260395,0.0028603985773613173,0.031634092692397225,38.542842319837625,-48.74919960530772,-76.75
1772312486.2688606,91.54712014993531,1.6127047744756013,-7.509952811156863,-0.2610705408066962,1.3100915531564865,9.637879100213436,-0.0015794004127100982,0.006444550472288887,0.031634092692397225,38.542842319837625,-48.74919960530772,-76.75
1772312486.2832847,91.54712014993531,1.6127047744756013,-7.509952811156863,-0.2610705408066962,1.3100915531564865,9.637879100213436,-0.0015794004127100982,0.006444550472288887,0.031634092692397225,38.542842319837625,-48.74919960530772,-76.75
1772312486.315222,91.63621426809468,1.6149342820438974,-7.528547800484241,-0.30839264975899044,1.287287229581664,9.685420128786516,0.01188178024733994,0.011036023064454292,0.04254240051736178,39.609677588328225,-48.69932466265513,-76.0
1772312486.351052,91.7271832446496,1.6190277797466026,-7.5367777284420185,-0.28455554230593677,1.295862818442678,9.646810806380108,-0.007305142523561832,0.0004253510695073734,0.04581489286485115,39.609677588328225,-48.69932466265513,-76.0
1772312486.3844368,91.80270920737435,1.6258320109304525,-7.5259602179818,-0.2989960026828699,1.295841687119899,9.69136407946674,-0.00544711968730925,0.007158413877596941,0.017453292519943295,39.81390106457709,-47.115318973982006,-75.1875
1772312486.428385,91.97758807682763,1.6586097921719283,-7.517280276996713,-0.27305437089761847,1.3402114972712964,9.757810013793739,0.006586334162124678,0.004014447920564042,0.028361600344907856,39.81390106457709,-47.115318973982006,-75.1875
1772312486.4937396,92.05378076051987,1.6556782706603579,-7.504598371164217,-0.29134210158713675,1.3253552374731414,9.802029040838635,-0.01345623570392094,-0.012898990856835973,0.025089107997418487,39.95426898503919,-48.55139978539379,-73.1875
1772312486.5175672,92.05378076051987,1.6556782706603579,-7.504598371164217,-0.29134210158713675,1.3253552374731414,9.802029040838635,-0.01345623570392094,-0.012898990856835973,0.025089107997418487,39.95426898503919,-48.55139978539379,-73.1875
1772312486.532639,92.08801345567173,1.6695056536468575,-7.496308888885774,-0.27626728680574536,1.2944015112134017,9.791314968890282,0.004733256282001195,-0.011026133152196093,0.037088246604879506,39.95426898503919,-48.55139978539379,-73.1875
1772312486.5511794,92.19839792385011,1.6767399907630172,-7.494727346752602,-0.29697374504222857,1.2606068124638385,9.784184873692679,-0.008454246910635456,0.005867525800687524,0.06544984694978735,39.95426898503919,-48.55139978539379,-73.1875
1772312486.5753818,92.19839792385011,1.6767399907630172,-7.494727346752602,-0.29697374504222857,1.2606068124638385,9.784184873692679,-0.008454246910635456,0.005867525800687524,0.06544984694978735,39.95426898503919,-48.55139978539379,-73.1875
1772312486.6104193,92.27385774554763,1.678058791903118,-7.512964035745571,-0.2800150826155296,1.2513121576570099,9.789475210109014,-0.00873781429030704,0.0009974307849796367,0.04036073895236887,38.017548292623715,-48.63461913152015,-73.1875
1772312486.6412423,92.36838427691217,1.684685260834891,-7.536901454579849,-0.3214651488093605,1.2916541632275162,9.833137210384988,0.004151286654270734,0.004156231610399833,0.03490658503988659,38.017548292623715,-48.63461913152015,-73.1875
1772312486.665055,92.44351697733887,1.6918059512193797,-7.55117070887725,-0.2941095602635341,1.2583588571679425,9.822052443344315,0.007730493593069205,0.006879791454054458,0.025089107997418487,37.45163623025289,-49.217628383301964,-71.5625
1772312486.6861255,92.44351697733887,1.6918059512193797,-7.55117070887725,-0.2941095602635341,1.2583588571679425,9.822052443344315,0.007730493593069205,0.006879791454054458,0.025089107997418487,37.45163623025289,-49.217628383301964,-71.5625
1772312486.70632,92.54170870322386,1.7063730953755467,-7.5617331673765,-0.33396421634596674,1.3714509508560855,9.791259872752473,-0.0061609830926173045,0.003290694602997789,0.061086523819801536,37.45163623025289,-49.217628383301964,-71.5625
1772312486.7499814,92.65133946571376,1.7180547839794242,-7.590998434826498,-0.3327768313942278,1.3821614598228347,9.770767760999155,0.0017162391464167904,0.004298015300235624,0.04581489286485115,37.67295689591274,-48.78254400878148,-73.5625
1772312486.8013403,92.69164075079928,1.7264469426084907,-7.586240609934897,-0.335060497880483,1.3879696499260332,9.753785377831889,-0.011172861798160983,0.0011392144748154282,0.02399827721492203,37.67295689591274,-48.78254400878148,-73.5625
1772312486.827912,92.80564807465885,1.7380852803092122,-7.590623583968702,-0.3488756840475733,1.3865567996781833,9.69899733934457,0.006156038136488206,0.0050168236616727774,0.05235987755982989,37.944152504225194,-49.41429490275159,-71.5625
1772312486.8505106,92.9314197410562,1.7428921968860498,-7.607979245507551,-0.38003649550416524,1.3943881833094602,9.662536511753752,0.008874653024013732,0.009745134987544873,0.05672320068981571,37.944152504225194,-49.41429490275159,-71.5625
1772312486.90152,92.9314197410562,1.7428921968860498,-7.607979245507551,-0.38003649550416524,1.3943881833094602,9.662536511753752,0.008874653024013732,0.009745134987544873,0.05672320068981571,37.944152504225194,-49.41429490275159,-71.5625
1772312486.931103,92.9314197410562,1.7428921968860498,-7.607979245507551,-0.38003649550416524,1.3943881833094602,9.662536511753752,0.008874653024013732,0.009745134987544873,0.05672320068981571,37.944152504225194,-49.41429490275159,-71.5625
1772312486.9523976,92.97206746806937,1.7472945302374403,-7.597460169823859,-0.38540437790106324,1.4061975514835303,9.638272238286193,0.0017162391464167904,0.004298015300235624,0.00545415391248228,35.66284041509874,-49.64543912613929,-71.25
1772312486.9902449,93.14585515939737,1.7704068385247498,-7.587198459193045,-0.3599923885339692,1.4228585019059456,9.655575752416421,0.012453859962812201,0.012468694831199499,0.05672320068981571,35.66284041509874,-49.64543912613929,-71.25
1772312487.0288877,93.21159649108793,1.7729876407717347,-7.5956758515879645,-0.3430809934806894,1.4339461782970522,9.66709104777717,0.0042881253879774265,0.014898797382924343,0.04799655442984406,36.71371179464264,-50.350585808507915,-71.1875
1772312487.0599165,93.30665040235655,1.7844647050313238,-7.5651476471718135,-0.314268245541489,1.4597832145905472,9.67475434820547,-0.011744941513633245,-0.00029345729192977967,0.031634092692397225,36.71371179464264,-50.350585808507915,-71.1875
1772312487.1164224,93.37242447051487,1.7887560258145498,-7.563890603681236,-0.31968454690886217,1.466421201865674,9.686544412450468,0.0021514801281823613,-0.005011878705543678,0.03490658503988659,35.302285129441074,-50.54838562842185,-69.5625
