timestamp,yaw,pitch,roll,ax,ay,az,gx,gy,gz,mx,my,mz
1772309733.4975061,-0.1426672855929731,1.4407757640883478,-11.309541129574285,-0.22814751386497856,-1.9359529250847367,9.671891224689366,0.0,0.002181661564992912,0.0,6.75,42.375,-104.1875
1772309733.8193176,-0.1426672855929731,1.4407757640883478,-11.309541129574285,-0.23279913102628808,-1.931754497391612,9.682062380795427,-0.001090830782496456,0.003272492347489368,-0.002181661564992912,6.0,42.0,-103.75
1772309733.9608905,-0.1426672855929731,1.4407757640883478,-11.309541129574285,-0.2312396662222011,-1.934122135409638,9.680913377682359,0.0,-0.003272492347489368,0.001090830782496456,6.0,41.5625,-103.5
1772309733.9916615,-0.1426672855929731,1.4407757640883478,-11.309541129574285,-0.23054901765156177,-1.9429680846560955,9.68597575867107,-0.001090830782496456,-0.001090830782496456,-0.001090830782496456,6.375,42.0,-103.75
1772309734.0646238,-0.14197763746545825,1.4338140378709838,-11.30950654381596,-0.23036536511418534,-1.945320338890273,9.690667024056639,-0.001090830782496456,-0.001090830782496456,0.001090830782496456,6.0,42.6875,-103.0
1772309734.1233168,-0.14197763746545825,1.4338140378709838,-11.30950654381596,-0.23358825810941397,-1.943540626099397,9.697134120473185,0.0,-0.001090830782496456,0.0,6.0,42.6875,-103.0
1772309734.172434,-0.14197763746545825,1.4338140378709838,-11.30950654381596,-0.2357330573956649,-1.9390111354104442,9.698092789188877,0.0,0.001090830782496456,0.001090830782496456,6.375,42.6875,-103.375
1772309734.1965232,-0.14197763746545825,1.4338140378709838,-11.30950654381596,-0.23716039736168704,-1.9359968099546725,9.68869543738818,0.001090830782496456,-0.002181661564992912,0.001090830782496456,6.375,42.6875,-103.375
1772309734.2231615,-0.14197763746545825,1.4338140378709838,-11.30950654381596,-0.23811027616464261,-1.933990810036078,9.682441604740115,-0.001090830782496456,-0.003272492347489368,0.001090830782496456,6.375,42.6875,-103.375
1772309734.246187,-0.14197763746545825,1.4338140378709838,-11.30950654381596,-0.23811027616464261,-1.933990810036078,9.682441604740115,-0.001090830782496456,-0.003272492347489368,0.001090830782496456,6.375,42.6875,-103.375
1772309734.2686825,-1.1375079167120771e-07,1.4338151865069955,-11.309515546142157,-0.2305909249944514,-1.9399234173139182,9.678279748972715,0.0,0.0,-0.002181661564992912,5.895906641410763,42.01473890048311,-103.0
1772309734.3638208,-1.1375079167120771e-07,1.4338151865069955,-11.309515546142157,-0.22757754744182032,-1.9425064170943922,9.673666896988166,-0.0010881243823619964,-0.001093530484528431,0.0,7.395902036134726,42.01845586253615,-103.0
1772309734.3905807,-1.1375079167120771e-07,1.4338151865069955,-11.309515546142157,-0.22677956284648304,-1.9418566495270329,9.672440278983702,-0.001093530484528431,0.0010881243823619964,-0.001090830782496456,7.395902036134726,42.01845586253615,-103.0
1772309734.4218485,-1.1375079167120771e-07,1.4338151865069955,-11.309515546142157,-0.2295936144495689,-1.9414325255715208,9.67496909011127,0.0010908274334452137,2.7030510832173195e-06,-0.002181661564992912,6.644200731165102,42.70409527075811,-103.375
1772309734.4513016,-1.1375079167120771e-07,1.4338151865069955,-11.309515546142157,-0.2295936144495689,-1.9414325255715208,9.67496909011127,0.0010908274334452137,2.7030510832173195e-06,-0.002181661564992912,6.644200731165102,42.70409527075811,-103.375
1772309734.472865,172.58112821653904,-53.042168809028134,-176.2227085841432,-0.23145804525422028,-1.9444953772541134,9.673306873960676,0.0010908274334452137,2.7030510832173195e-06,0.0,6.644200731165102,42.70409527075811,-103.375
1772309734.4897828,172.58112821653904,-53.042168809028134,-176.2227085841432,-0.23145804525422028,-1.9444953772541134,9.673306873960676,0.0010908274334452137,2.7030510832173195e-06,0.0,6.644200731165102,42.70409527075811,-103.375
1772309734.5346062,-1.1375079167120771e-07,1.4338151865069955,-11.309515546142157,-0.22935370169044814,-1.9465253817323975,9.672200687680627,-5.406102166434639e-06,0.0021816548668904274,-0.002181661564992912,6.644200731165102,42.70409527075811,-103.375
1772309734.5854669,-1.1375079167120771e-07,1.4338151865069955,-11.309515546142157,-0.2246081831186048,-1.9478680379338735,9.668119421360846,2.7030510832173195e-06,-0.0010908274334452137,-0.001090830782496456,5.89327379328986,43.07723563841258,-103.75
1772309734.6054401,-1.1375079167120771e-07,1.4338151865069955,-11.309515546142157,-0.2247951949571698,-1.9487698497396895,9.665403384215763,5.406102166434639e-06,-0.0021816548668904274,0.0,5.89327379328986,43.07723563841258,-103.75
1772309734.647369,0.7368012343091683,0.3112646692798579,124.75516801416873,-0.22491964924667568,-1.949369995422562,9.663595891835833,-0.0010881243823619964,-0.001093530484528431,0.001090830782496456,6.9594874932723725,41.579873091809525,-103.75
1772309734.7246373,0.7368012343091683,0.3112646692798579,124.75516801416873,-0.22491964924667568,-1.949369995422562,9.663595891835833,-0.0010881243823619964,-0.001093530484528431,0.001090830782496456,6.9594874932723725,41.579873091809525,-103.75
1772309734.7548995,-1.1375079167120771e-07,1.4338151865069955,-11.309515546142157,-0.2250107612882825,-1.9464242842332362,9.662393025848003,-0.0010881243823619964,-0.001093530484528431,0.0,6.9594874932723725,41.579873091809525,-103.75
1772309734.8076067,-1.1375079167120771e-07,1.4338151865069955,-11.309515546142157,-0.2250631062319975,-1.947809047779701,9.671627867091953,-0.001093530484528431,0.0010881243823619964,0.0,5.1449797035355225,42.38787926813758,-104.5625
1772309734.8338432,-1.1375079167120771e-07,1.4338151865069955,-11.309515546142157,-0.22509794120730847,-1.948730592451051,9.681118662487187,-2.7030510832173195e-06,0.0010908274334452137,-0.002181661564992912,5.1449797035355225,42.38787926813758,-104.5625
1772309734.847541,-1.1375079167120771e-07,1.4338151865069955,-11.309515546142157,-0.22509794120730847,-1.948730592451051,9.681118662487187,-2.7030510832173195e-06,0.0010908274334452137,-0.002181661564992912,5.1449797035355225,42.38787926813758,-104.5625
1772309734.8666875,-1.1375079167120771e-07,1.4338151865069955,-11.309515546142157,-0.2284662249314566,-1.949352159237692,9.684089569096264,0.0,0.0,0.001090830782496456,5.1449797035355225,42.38787926813758,-103.0
1772309734.881667,-1.1375079167120771e-07,1.4338151865069955,-11.309515546142157,-0.23070778012368262,-1.9497658049908455,9.689411785964722,-0.0021816548668904274,-5.406102166434639e-06,0.0,5.1449797035355225,42.38787926813758,-103.0
1772309734.8988552,-1.1375079167120771e-07,1.4338151865069955,-11.309515546142157,-0.2322160882686692,-1.9433508787444218,9.682918326715665,-2.7030510832173195e-06,0.0010908274334452137,-0.001090830782496456,5.1449797035355225,42.38787926813758,-103.0
1772309734.9253852,-1.1375079167120771e-07,1.4338151865069955,-11.309515546142157,-0.22986645995085483,-1.9424186293218728,9.68863233724407,-0.001093530484528431,0.0010881243823619964,-0.001090830782496456,5.8949774008975035,42.3897377491641,-102.5625
1772309734.942632,-1.1375079167120771e-07,1.4338151865069955,-11.309515546142157,-0.23164790998962825,-1.9418065168472611,9.682399612299083,-2.7030510832173195e-06,0.0010908274334452137,0.0,5.8949774008975035,42.3897377491641,-102.5625
1772309734.9682758,-1.1375079167120771e-07,1.4338151865069955,-11.309515546142157,-0.23164790998962825,-1.9418065168472611,9.682399612299083,-2.7030510832173195e-06,0.0010908274334452137,0.0,5.8949774008975035,42.3897377491641,-102.5625
1772309734.9947326,-1.1375079167120771e-07,1.4338151865069955,-11.309515546142157,-0.22948834365312026,-1.9413908737309653,9.688287138594253,-0.0010881243823619964,-0.001093530484528431,0.001090830782496456,5.8949774008975035,42.3897377491641,-102.5625
1772309735.0394216,-1.1375079167120771e-07,1.4338151865069955,-11.309515546142157,-0.2280511763801109,-1.941114267880108,9.685514998161072,-2.7030510832173195e-06,0.0010908274334452137,0.001090830782496456,5.4557751364953715,43.076151524480444,-103.0
1772309735.0668194,-1.1375079167120771e-07,1.4338151865069955,-11.309515546142157,-0.2270947576141335,-1.9409301897762525,9.683670169669627,-5.406102166434639e-06,0.0021816548668904274,-0.003272492347489368,5.4557751364953715,43.076151524480444,-103.0
1772309735.093069,-1.1375079167120771e-07,1.4338151865069955,-11.309515546142157,-0.22645827160927318,-1.9408076878544238,9.682442456916656,2.7030510832173195e-06,-0.0010908274334452137,-0.001090830782496456,6.6449750982594855,42.39159623019062,-104.1875
1772309735.1560168,-1.1375079167120771e-07,1.4338151865069955,-11.309515546142157,-0.22268959584584233,-1.940717875091697,9.681625427794003,0.0010881243823619964,0.001093530484528431,0.0,6.6449750982594855,42.39159623019062,-104.1875
1772309735.189951,-1.1375079167120771e-07,1.4338151865069955,-11.309515546142157,-0.220189873326332,-1.9373130042641653,9.68442681574701,-0.001085421331278779,-0.0021843579179736446,0.001090830782496456,5.89420303380312,42.70223678973159,-103.5
1772309735.2413402,-1.1375079167120771e-07,1.4338151865069955,-11.309515546142157,-0.22521653878774978,-1.935063678967715,9.686291108136182,-0.0010827182801955617,-0.0032751853514188588,0.0,5.89420303380312,42.70223678973159,-103.5
1772309735.2739105,-1.1375079167120771e-07,1.4338151865069955,-11.309515546142157,-0.22521653878774978,-1.935063678967715,9.686291108136182,-0.0010827182801955617,-0.0032751853514188588,0.0,5.89420303380312,42.70223678973159,-103.5
1772309735.2979028,-1.1375079167120771e-07,1.4338151865069955,-11.309515546142157,-0.2285617285007909,-1.933566778109537,9.684186662188345,-0.0010827182801955617,-0.0032751853514188588,0.001090830782496456,5.456704377008632,42.701152675799456,-104.5625
1772309735.3346071,-1.1375079167120771e-07,1.4338151865069955,-11.309515546142157,-0.22744281344939135,-1.9325623182077116,9.676095953503625,2.7030510832173195e-06,-0.0010908274334452137,0.002181661564992912,5.456704377008632,42.701152675799456,-104.5625
1772309735.370273,-1.1375079167120771e-07,1.4338151865069955,-11.309515546142157,-0.22669818798178504,-1.9318938613635992,9.67740190066772,0.0,0.0,-0.001090830782496456,6.644200731165102,42.70409527075811,-103.0
1772309735.3958194,-1.1375079167120771e-07,1.4338151865069955,-11.309515546142157,-0.22617778074454598,-1.941484315112627,9.674925882209719,2.7030510832173195e-06,-0.0010908274334452137,0.0,6.644200731165102,42.70409527075811,-103.0
1772309735.413178,-1.1375079167120771e-07,1.4338151865069955,-11.309515546142157,-0.22917655697870395,-1.9478749440524035,9.673278119584857,-0.001093530484528431,0.0010881243823619964,0.001090830782496456,6.644200731165102,42.70409527075811,-103.0
1772309735.4786692,-1.1375079167120771e-07,1.4338151865069955,-11.309515546142157,-0.22917655697870395,-1.9478749440524035,9.673278119584857,-0.001093530484528431,0.0010881243823619964,0.001090830782496456,6.644200731165102,42.70409527075811,-103.0
1772309735.5427256,-1.1375079167120771e-07,1.4338151865069955,-11.309515546142157,-0.23118878726838304,-1.9454376333494001,9.672181551964728,0.0010962335356116484,-0.00217895181580721,0.001090830782496456,5.89327379328986,43.07723563841258,-104.25
1772309735.5672696,-1.1375079167120771e-07,1.4338151865069955,-11.309515546142157,-0.2258377011736576,-1.9437990520987234,9.678142021877633,-0.002187060969056862,0.002176248764723993,-0.001090830782496456,5.89327379328986,43.07723563841258,-104.25
1772309735.6109743,-1.1375079167120771e-07,1.4338151865069955,-11.309515546142157,-0.2258377011736576,-1.9437990520987234,9.678142021877633,-0.002187060969056862,0.002176248764723993,-0.001090830782496456,5.89327379328986,43.07723563841258,-104.25
1772309735.7055054,-1.1375079167120771e-07,1.4338151865069955,-11.309515546142157,-0.22325185029269962,-1.9419911963856005,9.686974527884601,0.0,0.0,0.001090830782496456,5.456704377008632,42.701152675799456,-103.5
1772309735.7619371,-1.1375079167120771e-07,1.4338151865069955,-11.309515546142157,-0.2272376720499712,-1.9448671664401216,9.691331693811259,-0.0010881243823619964,-0.001093530484528431,0.001090830782496456,6.2699762495784945,42.39066698967736,-103.5
1772309735.845549,-1.1375079167120771e-07,1.4338151865069955,-11.309515546142157,-0.22989019190488896,-1.9467810923847146,9.690886227355398,-2.7030510832173195e-06,0.0010908274334452137,-0.001090830782496456,6.2699762495784945,42.39066698967736,-103.5
1772309735.8679173,-1.1375079167120771e-07,1.4338151865069955,-11.309515546142157,-0.2316637033399347,-1.9447096872836769,9.68389955099057,0.0,0.0,0.001090830782496456,6.954686417287197,43.517367143327974,-104.25
1772309735.8831282,-1.1375079167120771e-07,1.4338151865069955,-11.309515546142157,-0.2316637033399347,-1.9447096872836769,9.68389955099057,0.0,0.0,0.001090830782496456,6.954686417287197,43.517367143327974,-104.25
1772309735.9010112,-1.1375079167120771e-07,1.4338151865069955,-11.309515546142157,-0.23028429850539142,-1.9424055269007097,9.670584522771724,-5.406102166434639e-06,0.0021816548668904274,0.0,5.456704377008632,42.701152675799456,-103.5
1772309735.9591527,-1.1375079167120771e-07,1.4338151865069955,-11.309515546142157,-0.23028429850539142,-1.9424055269007097,9.670584522771724,-5.406102166434639e-06,0.0021816548668904274,0.0,5.456704377008632,42.701152675799456,-103.5
1772309735.9756982,-1.1375079167120771e-07,1.4338151865069955,-11.309515546142157,-0.23191768777792368,-1.9451428987695516,9.673734105082355,-0.001093530484528431,0.0010881243823619964,0.0,5.456704377008632,42.701152675799456,-103.5
1772309735.9925838,-1.1375079167120771e-07,1.4338151865069955,-11.309515546142157,-0.23191768777792368,-1.9451428987695516,9.673734105082355,-0.001093530484528431,0.0010881243823619964,0.0,5.456704377008632,42.701152675799456,-103.5
1772309736.0264354,-1.1375079167120771e-07,1.4338151865069955,-11.309515546142157,-0.23300469009264022,-1.9469645891698186,9.675830116926939,8.10915324965196e-06,-0.003272482300335641,0.002181661564992912,6.270905490091754,42.01566814099637,-103.875
1772309736.056574,-1.1375079167120771e-07,1.4338151865069955,-11.309515546142157,-0.23372807799047257,-1.948176903781581,9.677224989395524,5.406102166434639e-06,-0.0021816548668904274,-0.001090830782496456,6.270905490091754,42.01566814099637,-103.875
1772309736.081532,-1.1375079167120771e-07,1.4338151865069955,-11.309515546142157,-0.23421777365789392,-1.9456385841760564,9.67815326144162,0.0010827182801955617,0.0032751853514188588,0.0,6.645904338772745,42.01659738150963,-103.5
1772309736.146374,-1.1375079167120771e-07,1.4338151865069955,-11.309515546142157,-0.23455194975648996,-1.940604259396257,9.67877101611882,0.0010881243823619964,0.001093530484528431,-0.001090830782496456,6.645904338772745,42.01659738150963,-103.5
1772309736.166019,-1.1375079167120771e-07,1.4338151865069955,-11.309515546142157,-0.23455194975648996,-1.940604259396257,9.67877101611882,0.0010881243823619964,0.001093530484528431,-0.001090830782496456,6.645904338772745,42.01659738150963,-103.5
1772309736.1951513,-1.1375079167120771e-07,1.4338151865069955,-11.309515546142157,-0.23476605111492785,-1.9405990739296037,9.679182124955723,-5.406102166434639e-06,0.0021816548668904274,0.0,6.268272641970851,43.07816487892584,-102.6875
1772309736.2351627,-1.1375079167120771e-07,1.4338151865069955,-11.309515546142157,-0.23490853317729934,-1.9405956230594716,9.682800825001616,-2.7030510832173195e-06,0.0010908274334452137,0.0,6.268272641970851,43.07816487892584,-102.6875
1772309736.2628465,-1.1375079167120771e-07,1.4338151865069955,-11.309515546142157,-0.23165825196096781,-1.9405850374417613,9.68186391775131,5.406102166434639e-06,-0.0021816548668904274,-0.001090830782496456,6.269201882484111,42.70316603024485,-102.5625
1772309736.2793758,-1.1375079167120771e-07,1.4338151865069955,-11.309515546142157,-0.23165825196096781,-1.9405850374417613,9.68186391775131,5.406102166434639e-06,-0.0021816548668904274,-0.001090830782496456,6.269201882484111,42.70316603024485,-102.5625
1772309736.3082397,-1.1375079167120771e-07,1.4338151865069955,-11.309515546142157,-0.22615012468230852,-1.9405697037292378,9.68458552814949,-2.7030510832173195e-06,0.0010908274334452137,0.001090830782496456,6.269201882484111,42.70316603024485,-102.5625
1772309736.3834937,-1.1375079167120771e-07,1.4338151865069955,-11.309515546142157,-0.2258462071497573,-1.9338775855426067,9.6863967294671,-0.001093530484528431,0.0010881243823619964,0.001090830782496456,6.269201882484111,42.70316603024485,-103.0625
1772309736.413677,-1.1375079167120771e-07,1.4338151865069955,-11.309515546142157,-0.22898905486403662,-1.9294323447474484,9.690947175418843,-0.0010881243823619964,-0.001093530484528431,-0.002181661564992912,6.269201882484111,42.70316603024485,-103.0625
1772309736.4438012,-1.1375079167120771e-07,1.4338151865069955,-11.309515546142157,-0.23108058490998015,-1.9264740866548637,9.693975446367917,8.10915324965196e-06,-0.003272482300335641,0.0,6.581700923051604,42.70394039733924,-103.875
1772309736.4707832,-1.1375079167120771e-07,1.4338151865069955,-11.309515546142157,-0.23246418568944788,-1.9278505003773678,9.692645615149203,-0.001093530484528431,0.0010881243823619964,-0.001090830782496456,6.581700923051604,42.70394039733924,-103.875
1772309736.4973423,-1.1375079167120771e-07,1.4338151865069955,-11.309515546142157,-0.23246418568944788,-1.9278505003773678,9.692645615149203,-0.001093530484528431,0.0010881243823619964,-0.001090830782496456,6.581700923051604,42.70394039733924,-103.875
1772309736.5630014,-1.1375079167120771e-07,1.4338151865069955,-11.309515546142157,-0.23337666745016408,-1.9321115897713563,9.691760627328337,0.0010989365866948657,-0.003269779249252424,0.0,6.954686417287197,43.517367143327974,-103.875
1772309736.5833325,-1.1375079167120771e-07,1.4338151865069955,-11.309515546142157,-0.23398391386883155,-1.9349472971635682,9.691171677819513,-2.7030510832173195e-06,0.0010908274334452137,0.0,6.954686417287197,43.517367143327974,-103.875
1772309736.6203945,-1.1375079167120771e-07,1.4338151865069955,-11.309515546142157,-0.23398391386883155,-1.9349472971635682,9.691171677819513,-2.7030510832173195e-06,0.0010908274334452137,0.0,6.954686417287197,43.517367143327974,-103.875
1772309736.6566777,-1.1375079167120771e-07,1.4338151865069955,-11.309515546142157,-0.2310429281398569,-1.936826139653972,9.687434626793067,-0.001093530484528431,0.0010881243823619964,0.0,6.27291884453715,41.20317063552089,-103.75
1772309736.690628,-1.1375079167120771e-07,1.4338151865069955,-11.309515546142157,-0.22908573499018753,-1.93807648834329,9.688292772787882,2.7030510832173195e-06,-0.0010908274334452137,-0.001090830782496456,6.27291884453715,41.20317063552089,-103.75
1772309736.7413366,-1.1375079167120771e-07,1.4338151865069955,-11.309515546142157,-0.2277749557101764,-1.9422536828659318,9.685518747653994,-2.7030510832173195e-06,0.0010908274334452137,0.0,6.957474138826977,42.392370597285,-102.5625
1772309736.7901285,-1.1375079167120771e-07,1.4338151865069955,-11.309515546142157,-0.22690264674169297,-1.9450335591584298,9.683672664915282,-2.7030510832173195e-06,0.0010908274334452137,-0.003272492347489368,6.957474138826977,42.392370597285,-102.5625
1772309736.8333216,-1.1375079167120771e-07,1.4338151865069955,-11.309515546142157,-0.2263221348674969,-1.9468835357778342,9.682444117474764,0.0,0.0,0.0,5.89420303380312,42.70223678973159,-103.0
1772309736.8758254,-1.1375079167120771e-07,1.4338151865069955,-11.309515546142157,-0.22593581069996194,-1.948114674552455,9.681626532876875,0.0,0.0,0.001090830782496456,5.89420303380312,42.70223678973159,-103.0
1772309736.902584,-1.1375079167120771e-07,1.4338151865069955,-11.309515546142157,-0.22567871628199113,-1.9489339836542439,9.677737327752679,-0.0010908274334452137,-2.7030510832173195e-06,-0.003272492347489368,7.393269188013823,43.08095260046562,-103.5
1772309736.9450095,-1.1375079167120771e-07,1.4338151865069955,-11.309515546142157,-0.22885272425597525,-1.949487513811388,9.675149105187794,0.001093530484528431,-0.0010881243823619964,0.0,7.393269188013823,43.08095260046562,-103.5
1772309736.9701664,-1.1375079167120771e-07,1.4338151865069955,-11.309515546142157,-0.22885272425597525,-1.949487513811388,9.675149105187794,0.001093530484528431,-0.0010881243823619964,0.0,7.393269188013823,43.08095260046562,-103.5
1772309736.9895077,-1.1375079167120771e-07,1.4338151865069955,-11.309515546142157,-0.22761988966945856,-1.9498475928454444,9.673426671983202,-0.0010881243823619964,-0.001093530484528431,-0.003272492347489368,5.895906641410763,42.01473890048311,-104.25
1772309737.0139606,-1.1375079167120771e-07,1.4338151865069955,-11.309515546142157,-0.22345435058658555,-1.9500789323180763,9.672280411926387,2.7030510832173195e-06,-0.0010908274334452137,-0.001090830782496456,5.895906641410763,42.01473890048311,-104.25
1772309737.038538,-1.1375079167120771e-07,1.4338151865069955,-11.309515546142157,-0.22345435058658555,-1.9500789323180763,9.672280411926387,2.7030510832173195e-06,-0.0010908274334452137,-0.001090830782496456,5.895906641410763,42.01473890048311,-104.25
1772309737.0539489,-1.1375079167120771e-07,1.4338151865069955,-11.309515546142157,-0.22068223085905406,-1.9502328861528817,9.671517588663141,0.0,0.0,0.0,6.9594874932723725,41.579873091809525,-102.5625
1772309737.0832164,-0.0069618119950574705,1.4331259695915997,-11.309601762422604,-0.21883741614698818,-1.9503353407101676,9.664319714888105,0.004368715835947289,-0.002170842662557558,-0.01090830782496456,6.9594874932723725,41.579873091809525,-102.5625
1772309737.127317,-1.1375079167120771e-07,1.4338151865069955,-11.309515546142157,-0.23098182921069624,-1.9537817809195046,9.659529610296337,-0.0021816548668904274,-5.406102166434639e-06,0.009817477042468103,6.9594874932723725,41.579873091809525,-102.5625
1772309737.159941,-0.0069618119950574705,1.4331259695915997,-11.309601762422604,-0.2524359170892683,-1.9594536062255143,9.582749391638464,-0.0032670761981692066,-0.002189764020140079,-0.004363323129985824,6.2699762495784945,42.39066698967736,-103.5
1772309737.1813476,-0.0069618119950574705,1.4331259695915997,-11.309601762422604,-0.2524359170892683,-1.9594536062255143,9.582749391638464,-0.0032670761981692066,-0.002189764020140079,-0.004363323129985824,6.2699762495784945,42.39066698967736,-103.5
1772309737.2054472,-0.008340693997572625,1.4470449857757028,-11.309637269688663,-0.26671337291459335,-1.9632281426082236,9.591865024544639,-0.00546224632047572,0.003258967044919555,0.011999138607461015,6.2699762495784945,42.39066698967736,-103.5
1772309737.2335446,-0.001378975122364757,1.447734204827241,-11.309550215697968,-0.2762231493789015,-1.9623949529693718,9.597931376415406,0.0032968097600845968,-0.00980933774775727,-0.009817477042468103,5.1449797035355225,42.38787926813758,-103.75
1772309737.2517078,-0.001378975122364757,1.447734204827241,-11.309550215697968,-0.27933103448031693,-1.911655663911705,9.618694024356408,0.006558479856087368,-0.005437918860726764,-0.002181661564992912,5.1449797035355225,42.38787926813758,-103.75
1772309737.2722502,-0.001378975122364757,1.447734204827241,-11.309550215697968,-0.27933103448031693,-1.911655663911705,9.618694024356408,0.006558479856087368,-0.005437918860726764,-0.002181661564992912,5.1449797035355225,42.38787926813758,-103.75
1772309737.285371,0.03858985465893484,1.47279316512382,-11.288185538050554,-0.17770115274442094,-1.8776322716710527,9.632511334627171,0.022834393723102617,0.029509104775768333,0.0545415391248228,5.1449797035355225,42.38787926813758,-103.75
1772309737.306916,0.03858985465893484,1.47279316512382,-11.288185538050554,-0.17770115274442094,-1.8776322716710527,9.632511334627171,0.022834393723102617,0.029509104775768333,0.0545415391248228,5.1449797035355225,42.38787926813758,-103.75
1772309737.3337483,0.32902733200445566,1.5225519116499373,-11.277410298753823,-0.10999299980967224,-1.8850959971359906,9.641706600262895,-0.026171749249435477,-0.003337355526332857,0.1439896632895322,6.269201882484111,42.70316603024485,-103.5
1772309737.3653088,0.46442126223083985,1.507628228393395,-11.247122949827709,-0.09838499475333204,-1.8901459140794923,9.647825946825622,0.021884124945984705,-0.027216624814465996,0.0818123086872342,6.269201882484111,42.70316603024485,-103.5
1772309737.3871472,0.46442126223083985,1.507628228393395,-11.247122949827709,-0.09838499475333204,-1.8901459140794923,9.647825946825622,0.021884124945984705,-0.027216624814465996,0.0818123086872342,6.269201882484111,42.70316603024485,-103.5
1772309737.4352555,0.8984185453748329,1.566322529146674,-11.48044716326503,-0.43017498867553666,-1.8520270062025743,9.787258442631652,-0.19079208491175012,-0.04192447641048115,0.1538071403320003,5.896990755342899,41.57724024368862,-102.5625
1772309737.4636292,1.0136794105263907,1.483607089974148,-11.936793609992385,-0.5585607156141313,-2.0460426397520903,10.20965959931881,-0.1787010794070234,-0.07898287558570302,0.02945243112740431,5.896990755342899,41.57724024368862,-102.5625
1772309737.4928138,1.0136794105263907,1.483607089974148,-11.936793609992385,-0.5585607156141313,-2.0460426397520903,10.20965959931881,-0.1787010794070234,-0.07898287558570302,0.02945243112740431,5.896990755342899,41.57724024368862,-102.5625
1772309737.522099,1.962654925610625,1.2402470162462138,-12.463686100771115,-0.6439999827292258,-2.175157876582659,10.490762850564021,-0.3585416411669899,-0.13833356042047543,0.27052603405912107,6.582475290145987,42.39144135677174,-102.25
1772309737.550158,1.962654925610625,1.2402470162462138,-12.463686100771115,-0.6439999827292258,-2.175157876582659,10.490762850564021,-0.3585416411669899,-0.13833356042047543,0.27052603405912107,6.582475290145987,42.39144135677174,-102.25
1772309737.5784883,4.405977079492843,1.4410867731365307,-13.1059594084651,-0.6100271974349342,-2.4682551077297488,10.41691521096773,-0.30531815321916467,-0.046571606507999824,1.27736284630335,6.582475290145987,42.39144135677174,-102.25
1772309737.603154,7.012532891545069,2.457295057924193,-13.035905322833305,-0.49441068715326575,-2.3988129325466647,10.367770431748585,0.0517893730268114,0.23029433490893453,1.2282754610910094,4.769206487760148,42.69944906819181,-98.25
1772309737.631295,9.980824081817508,3.787886184884062,-12.610973884184546,-0.41746919108185937,-2.352599940682247,10.308304236502844,0.11491680551030649,0.28717413841091227,1.4835298641951802,4.769206487760148,42.69944906819181,-98.25
1772309737.6605601,12.813158387695797,4.710481990337156,-12.349971895565378,-0.3398445266311128,-2.184630239086286,10.268730147847728,0.01701804771072543,0.17566646560201088,1.784599160164202,5.143276095927879,43.075377157386065,-94.6875
1772309737.6882136,12.813158387695797,4.710481990337156,-12.349971895565378,-0.3398445266311128,-2.184630239086286,10.268730147847728,0.01701804771072543,0.17566646560201088,1.784599160164202,5.143276095927879,43.075377157386065,-94.6875
1772309737.7276912,18.183192450838227,5.8055783145989945,-11.339050273137913,-0.3398445266311128,-2.184630239086286,10.268730147847728,0.193103486230635,-0.010429834292722671,1.980948701013564,5.143276095927879,43.075377157386065,-94.6875
1772309737.7545986,22.649772923469218,6.17117036593583,-10.366171691292996,-0.2884431417312312,-1.9691501344651479,9.934643756845903,0.2034777616547847,-0.23511595812268773,1.9962203319685143,6.965837303446314,39.017380959156085,-88.0
1772309737.7788599,22.649772923469218,6.17117036593583,-10.366171691292996,-0.2884431417312312,-1.9691501344651479,9.934643756845903,0.2034777616547847,-0.23511595812268773,1.9962203319685143,6.965837303446314,39.017380959156085,-88.0
1772309737.8111074,29.81164238783207,5.638830089549949,-9.241131068247789,-0.4885184388416587,-1.9003206954825866,9.353683240024633,0.09853518000831171,-0.5855337602136734,2.1031217486531673,6.965837303446314,39.017380959156085,-88.0
1772309737.841046,29.81164238783207,5.638830089549949,-9.241131068247789,-0.4885184388416587,-1.9003206954825866,9.353683240024633,0.09853518000831171,-0.5855337602136734,2.1031217486531673,6.965837303446314,39.017380959156085,-88.0
1772309737.856004,33.31240002349822,5.281111069100931,-8.967066752474992,-0.5844962812407849,-1.8807874092878958,9.124983558994188,-0.0739804405921083,-0.5194203688446637,2.0147644552709543,5.159537804909925,36.51289730546873,-84.0
1772309737.8736901,35.55493934968065,5.949651597453932,-8.660814383457556,-0.6216656754322705,-1.8443062026484678,9.002892481377133,-0.17991774503720523,-0.46841367542781076,2.0082194705759755,5.159537804909925,36.51289730546873,-84.0
1772309737.8902373,35.55493934968065,5.949651597453932,-8.660814383457556,-0.6216656754322705,-1.8443062026484678,9.002892481377133,-0.17991774503720523,-0.46841367542781076,2.0082194705759755,5.159537804909925,36.51289730546873,-84.0
1772309737.9316552,40.2068312614727,4.814070922748082,-9.152758109974283,-0.5694807372058879,-1.8131475149270044,9.001924914045349,-0.30431532126729105,-0.4512685843161741,2.023491101530926,5.159537804909925,36.51289730546873,-84.0
1772309737.9615219,44.63290238796573,4.4491568755529105,-9.175535345152767,-0.5347522437601866,-1.7924117563137185,9.125050141965298,-0.0652727424821291,-0.5117629524018815,1.8795014382413937,0.6541310510773548,38.689239703282055,-81.1875
1772309737.9867342,48.91663998311745,3.867484760821059,-8.670464036145468,-0.5116408193147631,-1.7786123405901777,9.206988605747108,0.12466368044041572,-0.5647431657522172,1.8609573149389538,0.6541310510773548,38.689239703282055,-81.1875
1772309738.0107632,52.10125769281626,3.452223147346271,-8.43282596985534,-0.41621008488601363,-1.6755672048813628,9.26151773808129,0.029694117453601697,-0.5377076453603267,1.8413223608540177,-1.7870784274021234,40.18319503466983,-80.0
1772309738.036161,52.10125769281626,3.452223147346271,-8.43282596985534,-0.41621008488601363,-1.6755672048813628,9.26151773808129,0.029694117453601697,-0.5377076453603267,1.8413223608540177,-1.7870784274021234,40.18319503466983,-80.0
1772309738.0522861,55.51673081087975,3.2407683053731215,-8.607883588358318,-0.33264796673594105,-1.600251880669196,9.354673165543796,-0.228030383305373,-0.4216270300373281,2.0147644552709543,-1.7870784274021234,40.18319503466983,-80.0
1772309738.0666156,57.9189306741477,3.151897685484305,-8.862844042707248,-0.25695112372945234,-1.5567708419946014,9.436737732149702,-0.3382553120539207,-0.40117431696127404,2.1347558413455645,-1.7870784274021234,40.18319503466983,-80.0
1772309738.0893586,60.33558817873633,3.151284019090874,-9.016675653970314,-0.19650725957739856,-1.541190234913971,9.491350784504656,-0.2903535117702439,-0.36287642254303,2.1478458107355216,-7.667480959731659,42.356130217267875,-78.75
1772309738.11373,63.799089072616795,3.2803838712091715,-8.980745096717694,-0.1562328085732934,-1.5508921235718616,9.52769516077911,-0.03332639819073929,-0.19752356003716343,1.9962203319685143,-7.667480959731659,42.356130217267875,-78.75
1772309738.1583333,68.9363877062627,3.8317400417193705,-8.143422827058803,-0.18255435741559425,-1.7180461167175907,9.515085708415961,0.25973856645870563,-0.04844390834722889,1.8216874067690814,-6.98617800723824,44.85782614941545,-78.375
1772309738.1996608,71.81414915577997,4.10200411345592,-7.432896273513263,-0.20007105413917917,-1.8292852319236235,9.486623588481182,0.2827594707065503,-0.0942018964791803,1.7267851286918898,-6.98617800723824,44.85782614941545,-78.375
1772309738.2410305,74.66352828495467,4.255198551060114,-6.919651771520782,-0.3086947163025853,-1.920279511620355,9.414160578290188,0.14211301112028132,-0.1229121033384909,1.6951510359994926,-6.98617800723824,44.85782614941545,-78.375
1772309738.2752466,79.06611862757592,4.576302892482015,-6.448606150589201,-0.37769547234461237,-1.9574111891231611,9.365937254472945,0.021938185967649054,-0.04903317348337027,1.5369805725375065,-8.803318645095993,46.72832906367299,-77.1875
1772309738.2965102,80.58183269177927,4.672630175010311,-6.368753098592892,-0.42361470470163215,-1.982121905713263,9.360606064820947,-0.054349455045352255,-0.07758390032877104,1.327541062298187,-8.803318645095993,46.72832906367299,-77.1875
1772309738.3191276,81.96243762516244,4.706844634739601,-6.349007729620044,-0.37404021023008405,-1.9381558472449207,9.604596484002467,-0.0946235724481622,-0.11259039108909692,1.203186353093591,-8.803318645095993,46.72832906367299,-77.1875
1772309738.3514702,81.96243762516244,4.706844634739601,-6.349007729620044,-0.37404021023008405,-1.9381558472449207,9.604596484002467,-0.0946235724481622,-0.11259039108909692,1.203186353093591,-8.803318645095993,46.72832906367299,-77.1875
1772309738.3786712,84.8491020052151,4.7975612269167245,-6.4141437652916355,-0.3410489379426575,-1.9088969264672926,9.766969382416201,-0.1034096590395547,-0.08861381196196795,1.040652566501619,-9.996390442332022,48.97537956080028,-76.75
1772309738.3991468,86.13197100460646,4.900679349071963,-6.445333718507645,-0.4193223213555672,-1.9398506361570902,9.798089163218073,-0.08612671232267395,-0.019848434837588014,0.7690357016600015,-9.996390442332022,48.97537956080028,-76.75
1772309738.4385657,87.65478652929592,4.685847980325789,-6.258762255803879,-0.47141238364587446,-1.9604499841800571,9.802073471174392,0.04842889524490417,-0.17441345510357262,0.4788747135159442,-11.382227360150353,53.34695891352988,-77.1875
1772309738.4770665,88.08486540282637,4.555862607951114,-6.223194202826353,-0.41954442326433716,-1.7966527273505302,9.804724983611687,-0.010529847182801711,-0.15274287119316207,0.358883327441334,-11.382227360150353,53.34695891352988,-77.1875
1772309738.495878,88.08486540282637,4.555862607951114,-6.223194202826353,-0.41954442326433716,-1.7966527273505302,9.804724983611687,-0.010529847182801711,-0.15274287119316207,0.358883327441334,-11.382227360150353,53.34695891352988,-77.1875
1772309738.5347013,88.9441574538923,4.362230534187608,-6.453602643717535,-0.38505174234006423,-1.677612178354096,9.65261439698268,-0.10892596638169476,-0.06353829624814412,0.27707101875409984,-12.508153146706585,53.71917004067109,-77.1875
1772309738.5563684,89.46181655107172,4.091844101133103,-6.95686445067979,-0.3821678571167182,-1.5984417573801486,9.551386500767663,-0.1622927160369305,-0.09748639618802339,0.22252947962927702,-12.508153146706585,53.71917004067109,-77.1875
1772309738.5754936,89.6314739271217,3.977937227815328,-7.123784462901884,-0.39694101449299973,-1.5591765778733113,9.484020466626264,-0.15894725135734797,-0.12693062773779454,0.12544553998709243,-12.508153146706585,53.71917004067109,-77.1875
1772309738.5970988,89.73322191805156,3.839991312724263,-7.302492993661464,-0.4366876492845496,-1.6100579745078312,9.455914681969668,-0.1731036805323868,-0.13678321430288326,0.055632369907319255,-15.82250145774852,54.46095944683261,-74.5
1772309738.6163137,89.73322191805156,3.839991312724263,-7.302492993661464,-0.4366876492845496,-1.6100579745078312,9.455914681969668,-0.1731036805323868,-0.13678321430288326,0.055632369907319255,-15.82250145774852,54.46095944683261,-74.5
1772309738.636061,89.7765287126472,3.6739748277119686,-7.518416735960639,-0.4631385907393233,-1.6439189755856618,9.574360176242985,-0.1992159626579915,-0.16411877336501082,0.014180800172453928,-15.82250145774852,54.46095944683261,-74.5
1772309738.6525753,89.81308329453707,3.3289386433042507,-7.892440709068957,-0.4206290401575375,-1.6261626724649103,9.833820361754258,-0.2503307781181731,-0.22642298047229922,-0.019634954084936207,-15.82250145774852,54.46095944683261,-74.5
1772309738.667058,89.81308329453707,3.3289386433042507,-7.892440709068957,-0.4206290401575375,-1.6261626724649103,9.833820361754258,-0.2503307781181731,-0.22642298047229922,-0.019634954084936207,-15.82250145774852,54.46095944683261,-74.5
1772309738.6911542,89.82847152716916,3.0569876796340014,-8.203215488008812,-0.3823041047965208,-1.6143211837823939,10.00648821685183,-0.28408425838006074,-0.25159580602511883,-0.017453292519943295,-16.63670257083164,55.1464439816357,-75.25
1772309738.7063298,89.89448577823075,2.605188981887479,-8.685801175125464,-0.35683244484008847,-1.5930603995934314,10.111361410470982,-0.29492495643743244,-0.27889352237208137,-0.002181661564992912,-16.63670257083164,55.1464439816357,-75.25
1772309738.7348642,89.96804843280059,2.119635985014389,-9.114375351802718,-0.3398979178805405,-1.5722213823397764,10.104215780045848,-0.22724770369541453,-0.29726999957349054,0.0,-16.63670257083164,55.1464439816357,-75.25
1772309738.7523687,89.96804843280059,2.119635985014389,-9.114375351802718,-0.3398979178805405,-1.5722213823397764,10.104215780045848,-0.22724770369541453,-0.29726999957349054,0.0,-16.63670257083164,55.1464439816357,-75.25
1772309738.7737763,90.0967225793168,1.6191146475738398,-9.50327729867521,-0.31524777361117906,-1.5583200927357996,10.076044660868607,-0.17072470293642153,-0.21640821084221742,0.026179938779914945,-20.644124214201618,58.13652287227552,-74.5
1772309738.794142,90.0967225793168,1.6191146475738398,-9.50327729867521,-0.31524777361117906,-1.5583200927357996,10.076044660868607,-0.17072470293642153,-0.21640821084221742,0.026179938779914945,-20.644124214201618,58.13652287227552,-74.5
1772309738.8155003,90.20448011509009,1.5440198442456379,-9.705118087113387,-0.29880193244914194,-1.5657944469779872,10.017155755260342,-0.10909085249777102,0.003002177192013909,0.06326818538479445,-20.644124214201618,58.13652287227552,-74.5
1772309738.8280158,90.20448011509009,1.5440198442456379,-9.705118087113387,-0.29880193244914194,-1.5657944469779872,10.017155755260342,-0.10909085249777102,0.003002177192013909,0.06326818538479445,-20.644124214201618,58.13652287227552,-74.5
1772309738.846734,90.35019694039585,1.8994551467164922,-9.876682835411442,-0.34131271904577365,-1.5976619833648213,9.897683165434556,-0.07021030424972662,0.1601786374471205,0.09381144729469522,-23.64674785177045,59.19158568609892,-71.5625
1772309738.862705,90.40689507081373,2.1577133336005927,-9.900638996178795,-0.3863286798352847,-1.618910918357484,9.81817549150177,-0.020170097916490874,0.2159351769026544,0.08835729338221293,-23.64674785177045,59.19158568609892,-71.5625
1772309738.8895788,90.49547350174707,2.5176720376450703,-9.873218662558914,-0.4163194552882181,-1.6196714414801003,9.83551136851212,0.009320085501694936,0.20073657521366828,0.0916297857297023,-23.64674785177045,59.19158568609892,-71.5625
1772309738.9072604,90.58931966847882,2.842923592972863,-9.761453222625807,-0.3961367640867019,-1.6200780918963675,9.903915100032503,0.05079855848344523,0.18993101682037838,0.08835729338221293,-23.652323294850007,61.44157877818486,-73.25
1772309738.9370735,90.58931966847882,2.842923592972863,-9.761453222625807,-0.3961367640867019,-1.6200780918963675,9.903915100032503,0.05079855848344523,0.18993101682037838,0.08835729338221293,-23.652323294850007,61.44157877818486,-73.25
1772309738.9543285,90.69205924242831,3.1034235661412937,-9.544840522455187,-0.3827717213650155,-1.5935879017081238,9.94943701923957,0.1239867124654368,0.14866067877203584,0.08072147790473774,-23.652323294850007,61.44157877818486,-73.25
1772309738.9850163,90.75411710342875,3.2414777777597843,-9.398616015968127,-0.3705489114982043,-1.5692604840760531,9.986421571373354,0.10329883394514279,0.13333773673322172,0.07090400086226964,-23.652323294850007,61.44157877818486,-73.25
1772309739.0197182,90.75411710342875,3.2414777777597843,-9.398616015968127,-0.3705489114982043,-1.5692604840760531,9.986421571373354,0.10329883394514279,0.13333773673322172,0.07090400086226964,-23.652323294850007,61.44157877818486,-73.25
1772309739.047568,90.90968809407819,3.5485860785508314,-9.005882580769864,-0.36575986950678485,-1.5530791484991575,9.980928372307995,0.144825961846391,0.102897284537918,0.07090400086226964,-21.400471721737546,60.697156523902436,-72.5
1772309739.0719166,90.87191683880721,3.8039336619906536,-8.484737916225324,-0.3592360032235749,-1.5389572598906984,9.78325623066853,0.2571298295206669,0.12390142003494843,-0.03381575425739013,-21.400471721737546,60.697156523902436,-72.5
1772309739.085459,90.80451896546448,3.9154507442308955,-8.178906358890208,-0.3212610684682554,-1.6030686413703783,9.651707628549971,0.28117668797595946,0.10432599335676537,-0.04799655442984406,-21.400471721737546,60.697156523902436,-72.5
1772309739.1091416,90.73313284671715,4.027132391700108,-7.86380033613281,-0.2625381592242982,-1.6456511585521865,9.62103040235867,0.28662812209210237,0.10543033604562667,-0.04799655442984406,-21.395825519171247,58.82216228049749,-74.375
1772309739.127101,90.70168890214488,4.2249266306187545,-7.403069746904147,-0.22340898448720536,-1.6940599566820602,9.60061505101543,0.2745830684557903,0.12394466885227992,0.026179938779914945,-21.395825519171247,58.82216228049749,-74.375
1772309739.1552672,90.69195466912805,4.3614455136574755,-7.165068016112078,-0.19721975196184066,-1.7864872969455794,9.573648415921642,0.2374895296164866,0.12603441998234094,0.020725784867432664,-21.395825519171247,58.82216228049749,-74.375
1772309739.1738346,90.69195466912805,4.3614455136574755,-7.165068016112078,-0.19721975196184066,-1.7864872969455794,9.573648415921642,0.2374895296164866,0.12603441998234094,0.020725784867432664,-21.395825519171247,58.82216228049749,-74.375
1772309739.1926434,90.62499386667102,4.3282534961083785,-7.286613043838318,-0.2031405075120932,-1.8748154946228996,9.50218063418667,0.16769279218249222,0.11931646011234376,-0.0272707695624114,-22.14241600131794,57.445308020974,-78.0
1772309739.225981,90.57102229461492,4.370616116000672,-7.462311802359895,-0.2071470170091026,-1.9068361119888506,9.454619623789478,-0.1310506628740858,0.06076197014294589,0.016362461737446838,-22.14241600131794,57.445308020974,-78.0
1772309739.2423503,90.57102229461492,4.370616116000672,-7.462311802359895,-0.2071470170091026,-1.9068361119888506,9.454619623789478,-0.1310506628740858,0.06076197014294589,0.016362461737446838,-22.14241600131794,57.445308020974,-78.0
1772309739.2660024,90.63782738452694,4.422080588037229,-7.831557586792754,-0.20971383509748454,-1.9682866923986881,9.419623190954125,-0.30985716127335466,0.024321364461606196,0.06981317007977318,-21.70584658503671,57.82139098358713,-79.5625
1772309739.2801306,90.74304852569205,4.264915181011141,-8.3639439829246,-0.5319798137834614,-2.240789120190897,9.784366413887016,-0.3228281562270357,-0.023707479222981814,0.019634954084936207,-21.70584658503671,57.82139098358713,-79.5625
1772309739.297016,90.74304852569205,4.264915181011141,-8.3639439829246,-0.5319798137834614,-2.240789120190897,9.784366413887016,-0.3228281562270357,-0.023707479222981814,0.019634954084936207,-21.70584658503671,57.82139098358713,-79.5625
1772309739.3212247,90.84438809864844,4.099898568236738,-8.504678094413919,-0.7564795269637506,-2.4221613091415977,10.027098954300085,-0.23206512601117593,-0.11402180295902752,0.05672320068981571,-21.70584658503671,57.82139098358713,-79.5625
1772309739.3474474,90.78947577671833,3.9922900432091555,-8.601014793551366,-0.9068431141127149,-2.154830708111725,10.18863474844484,0.0076763378003647555,-0.016343490144095682,-0.11999138607461016,-23.20924919497596,59.192669800031055,-78.375
1772309739.3696365,90.56037532134876,3.9746352334456967,-8.519869038323224,-0.776096402521476,-1.9763532313539809,10.158985434975026,0.07962229348825094,0.0034698050294105056,-0.11671889372712078,-23.20924919497596,59.192669800031055,-78.375
1772309739.391202,90.28949713493232,4.013982106266031,-8.519347729475758,-0.6889947463699254,-1.8943745801050718,10.022175238309218,0.009679591295762839,0.055656526565454854,-0.21598449493429828,-23.20924919497596,59.192669800031055,-78.375
1772309739.4190161,89.74582531222104,4.0776832000488445,-8.464227260656775,-0.6309715434750176,-1.8632344135209364,9.994686703137226,0.05429539402368791,0.0994004489976753,-0.35561083509384467,-24.022830814383575,59.62815510238015,-79.5625
1772309739.4372556,89.74582531222104,4.0776832000488445,-8.464227260656775,-0.6309715434750176,-1.8632344135209364,9.994686703137226,0.05429539402368791,0.0994004489976753,-0.35561083509384467,-24.022830814383575,59.62815510238015,-79.5625
1772309739.4513807,88.81418551266943,4.122977236962804,-8.473607722533723,-0.5187655184914631,-1.8423286202695517,9.912836267608254,0.0030724565201775593,0.08072933922819546,-0.42215151282612845,-24.022830814383575,59.62815510238015,-79.5625
1772309739.479826,88.15598716372995,4.068906948159943,-8.53201018466324,-0.3605075718689942,-1.8114833136530584,9.831604823434443,-0.0033265433219999874,0.021808439515654622,-0.39924406639370286,-24.33161289289803,58.1273853405618,1968.8125
1772309739.502416,87.81891889515789,3.973577435620328,-8.581906875734397,-0.2551886762488399,-1.7909561066644337,9.724024417434348,-0.018406210763324552,-0.05567815097412059,-0.2879793265790644,-24.33161289289803,58.1273853405618,1968.8125
1772309739.5317166,87.43945581591616,3.4125027765430445,-8.898806999729148,-0.18505868219184732,-1.794020986903485,9.652430858993164,-0.04761797991993898,-0.15283477492999148,-0.1712604328519436,-24.33161289289803,58.1273853405618,1968.8125
1772309739.5546815,87.39010764075832,3.107849448470208,-9.031109120670022,-0.19174379550193316,-1.8630952848448143,9.611476369017643,-0.02236946893678924,-0.2171314233283451,-0.050178215994836975,-24.01833948523615,57.81566066708869,-79.5625
1772309739.5877464,87.43259683833348,2.705378653322686,-9.203347752246836,-0.22629857666708422,-1.9091380604339787,9.584221613430563,-0.04417250235027743,-0.22263962151723551,0.0,-24.01833948523615,57.81566066708869,-79.5625
1772309739.612024,87.43259683833348,2.705378653322686,-9.203347752246836,-0.22629857666708422,-1.9091380604339787,9.584221613430563,-0.04417250235027743,-0.22263962151723551,0.0,-24.01833948523615,57.81566066708869,-79.5625
1772309739.6635482,87.46714210467673,2.378773196769642,-9.283684017525957,-0.24933584304122566,-1.9230535060710094,9.56608387804293,0.03202593797697771,-0.1580915893681427,-0.020725784867432664,-24.01833948523615,57.81566066708869,-79.5625
1772309739.6985383,87.28872950357817,2.1041653230187074,-9.156060244144804,-0.2613217850328786,-1.932305790594554,9.60753520507135,0.039337363881108124,-0.027173375997134517,-0.05781403147231216,-26.13961599904206,56.310399576122926,-78.375
1772309739.7495298,87.10533211781744,2.0566606765510937,-9.084183990765649,-0.19905116535515066,-1.938289011444273,9.69867772260617,-0.005389263941228853,-0.02619337365810122,-0.06326818538479445,-26.13961599904206,56.310399576122926,-78.375
1772309739.7739232,86.98570505192818,2.0029738687549,-9.070443853246408,-0.15763563087458132,-1.932235473771172,9.759332049896962,0.02948748036710259,-0.014107774255540911,-0.0818123086872342,-27.638682153252766,55.9316837653889,-76.75
1772309739.7871387,86.98570505192818,2.0029738687549,-9.070443853246408,-0.15763563087458132,-1.932235473771172,9.759332049896962,0.02948748036710259,-0.014107774255540911,-0.0818123086872342,-27.638682153252766,55.9316837653889,-76.75
1772309739.8030407,86.89735618677872,2.0130145081769033,-8.987637183052117,-0.22712344250964206,-1.911721788849515,9.505326996911647,0.05449812285492921,0.017588391489284285,-0.05235987755982989,-27.638682153252766,55.9316837653889,-76.75
1772309739.816018,86.89735618677872,2.0130145081769033,-8.987637183052117,-0.22712344250964206,-1.911721788849515,9.505326996911647,0.05449812285492921,0.017588391489284285,-0.05235987755982989,-27.638682153252766,55.9316837653889,-76.75
1772309739.8897316,87.40826998398924,2.1577025765702684,-9.637123157675472,-0.24716404905798683,-1.9334258924746766,9.39105247209778,-0.101436139106072,-0.004614693484520065,0.17453292519943295,-27.325098998753138,55.49495947568879,-78.0
1772309739.9134233,87.40826998398924,2.1577025765702684,-9.637123157675472,-0.24716404905798683,-1.9334258924746766,9.39105247209778,-0.101436139106072,-0.004614693484520065,0.17453292519943295,-27.325098998753138,55.49495947568879,-78.0
1772309739.9306703,87.70534857618635,2.238574764331723,-9.821431467390628,-0.22975398925829155,-1.9458240988337925,9.49439887135109,-0.10912869521293606,0.018273761260246903,0.17889624832941878,-27.325098998753138,55.49495947568879,-78.0
1772309739.9472249,87.9614243548308,2.195010566645638,-9.86939865323167,-0.20492829793302714,-1.897175085827415,9.59328075096512,0.017680295226113675,-0.09158625559206647,0.15162547876700738,-26.519106176870473,58.121964770901116,-77.5625
1772309739.968299,88.09785171651492,2.17226202337848,-9.851167336775852,-0.29879542510516494,-1.8650732514888984,9.659085537265286,0.048077498604085916,-0.032605888755694847,0.11235557059713497,-26.519106176870473,58.121964770901116,-77.5625
1772309739.9857144,88.19665211637266,2.2301865219580903,-9.87041743243853,-0.29099924128790683,-1.8502259710661135,9.662736546972585,-0.04155956451424681,0.043530381396646285,0.055632369907319255,-26.519106176870473,58.121964770901116,-77.5625
1772309740.0290089,88.19665211637266,2.2301865219580903,-9.87041743243853,-0.29099924128790683,-1.8502259710661135,9.662736546972585,-0.04155956451424681,0.043530381396646285,0.055632369907319255,-26.519106176870473,58.121964770901116,-77.5625
1772309740.0572498,88.22593441910675,2.248162338111994,-9.824940095879025,-0.28581096804660117,-1.84034527179974,9.658476029733704,0.01742350537320803,0.012042350585228827,0.003272492347489368,-26.892401417943823,57.433537641139374,-77.5625
1772309740.0788097,88.22899947988542,2.2137740011164415,-9.819376519807902,-0.28235823016132183,-1.833769776812611,9.655640703104323,0.009847180462922312,-0.011974774308148394,-0.008726646259971648,-26.892401417943823,57.433537641139374,-77.5625
1772309740.1094258,88.22899947988542,2.2137740011164415,-9.819376519807902,-0.28235823016132183,-1.833769776812611,9.655640703104323,0.009847180462922312,-0.011974774308148394,-0.008726646259971648,-26.892401417943823,57.433537641139374,-77.5625
1772309740.1458347,88.28613342854224,2.103056376563317,-9.920833832243309,-0.2732542213632494,-1.8762087002683483,9.653753824905145,-0.027219327865549214,-0.020793297512539492,0.013089969389957472,-26.89333065845708,57.80853648982037,-79.1875
1772309740.1802115,88.22716842573685,2.0927123640810343,-9.936529559855341,-0.2972434944261685,-1.9279416417344557,9.619047011468208,0.011977477359231612,0.0087563530294771,-0.038179077387375956,-26.89333065845708,57.80853648982037,-79.1875
1772309740.2084844,88.18015066808395,2.113093693058623,-9.962808360956629,-0.2831021747369046,-1.9622947344656527,9.632746243606949,-0.014172647481538127,-0.003307621964417466,-0.013089969389957472,-26.894105025551465,58.12103553038786,-76.375
1772309740.2435665,88.16528707189336,2.1064946507131066,-9.988040619897857,-0.32395898613480195,-1.9484845546525476,9.591686253955041,-0.01962948769984741,-0.002230309786388339,-0.009817477042468103,-26.894105025551465,58.12103553038786,-76.375
1772309740.2711513,88.1757291135519,2.0042849426167395,-9.911307762884874,-0.2876912796388426,-1.898995324068675,9.574396624633792,0.02957127495068233,-0.04792342469234253,0.002181661564992912,-25.83160828762199,58.12366837850876,-77.5625
1772309740.290654,88.24201505663329,1.9360111468180257,-9.873664117685783,-0.2634560568763747,-1.9062020111925666,9.562890569458315,0.021994950040396616,-0.07194054958571976,0.05781403147231216,-25.83160828762199,58.12366837850876,-77.5625
1772309740.3347173,88.341446251536,1.836527573594178,-9.790714956053126,-0.24409873284652497,-1.8641582717464085,9.561923641684732,0.04596071696319271,-0.05879115326054641,0.04581489286485115,-25.83160828762199,58.12366837850876,-77.5625
1772309740.357516,88.50813347959857,1.8116214637430503,-9.747836582334763,-0.1908847833433252,-1.9130164966339487,9.561280162052704,0.01971328228342715,-0.03158534065041329,0.09708393964218458,-25.829904680014348,57.43617048926028,-77.5625
1772309740.3714676,88.67724237485957,1.7954052157575955,-9.813955986458215,-0.155471494387711,-1.9455310995144737,9.510675257935937,0.005429809707477112,0.009830962156423009,0.16035212502697901,-25.829904680014348,57.43617048926028,-77.5625
1772309740.3888876,88.8545927834814,1.7949747942727226,-9.895800602168043,-0.1318463224648044,-1.990584914580026,9.476998259540046,-0.013111553610008302,0.0086941828545631,0.1712604328519436,-25.829904680014348,57.43617048926028,-77.5625
1772309740.427199,89.11159244589983,1.776089535076413,-10.069861972955806,-0.11274577661461702,-2.0339398418687176,9.478002375255539,-0.04034980283314004,-0.004463322623859896,0.1439896632895322,-27.329900074738312,57.43245352720724,-78.75
1772309740.454892,89.30927412921612,1.827734223639202,-10.151368317585131,-0.10003457671839489,-2.0627920616730706,9.565643507437796,-0.016416472523342548,0.02177600290265601,0.0818123086872342,-27.329900074738312,57.43245352720724,-78.75
1772309740.488146,89.30927412921612,1.827734223639202,-10.151368317585131,-0.10003457671839489,-2.0627920616730706,9.565643507437796,-0.016416472523342548,0.02177600290265601,0.0818123086872342,-27.329900074738312,57.43245352720724,-78.75
1772309740.5199544,89.40561721692424,1.8713972696835932,-10.095914455255446,-0.1283715309901851,-2.0820840717765026,9.623967701889494,0.03923194488886265,0.015368893907228816,0.04254240051736178,-27.3333072899536,58.8074493057042,-78.5
1772309740.5368028,89.42268068354583,1.9178839635286697,-10.021151429444446,-0.14735379404633428,-2.0447461674363,9.662781801773157,0.06316257214757692,0.042699046867189935,0.015271630954950384,-27.3333072899536,58.8074493057042,-78.5
1772309740.5515282,89.35879774172571,1.982312187789465,-9.943818056731427,-0.1535115918468485,-1.9329089936177613,9.641780587761358,0.04680286369698194,0.04156767366749647,-0.030543261909900768,-27.3333072899536,58.8074493057042,-78.5
1772309740.5676186,89.35879774172571,1.982312187789465,-9.943818056731427,-0.1535115918468485,-1.9329089936177613,9.641780587761358,0.04680286369698194,0.04156767366749647,-0.030543261909900768,-27.3333072899536,58.8074493057042,-78.5
1772309740.5943484,89.25968491727595,1.9837616790818056,-9.925831758264433,-0.1542644360587713,-1.858474314642427,9.61442406760616,0.029363140017274594,0.03607028768293892,-0.07963064712224129,-25.83160828762199,58.12366837850876,-78.75
1772309740.6354558,88.90849513747874,1.6977901853664075,-10.161726771327542,-0.12820545379681472,-1.829417070618988,9.561818094999795,-0.09471007008282516,-0.07768391321885007,-0.12326387842209953,-25.83253752813525,58.49866722718975,-79.25
1772309740.668846,88.84140049823581,1.5911591175824336,-10.300782040353694,-0.11053833584407868,-1.8397118047079464,9.581280592156828,-0.06537936667854916,-0.028523696334568596,-0.05345070834232634,-25.83253752813525,58.49866722718975,-79.25
1772309740.6988015,88.82289165697614,1.6836512128702714,-10.316883667270867,-0.05529474751743047,-1.8464550769160128,9.594232666604496,0.01730186807446325,0.06112958509026344,-0.026179938779914945,-26.520035417383735,58.49696361958211,-78.0
1772309740.7571478,88.82289165697614,1.6836512128702714,-10.316883667270867,-0.05529474751743047,-1.8464550769160128,9.594232666604496,0.01730186807446325,0.06112958509026344,-0.026179938779914945,-26.520035417383735,58.49696361958211,-78.0
1772309740.7834003,89.15103160081519,1.7381830941623937,-10.297310411445379,-0.16218775814933337,-1.9248913122558398,9.542640116733518,-0.005427106656393895,-0.010921789589868223,0.09381144729469522,-26.520035417383735,58.49696361958211,-78.0
1772309740.8028286,89.15103160081519,1.7381830941623937,-10.297310411445379,-0.16218775814933337,-1.9248913122558398,9.542640116733518,-0.005427106656393895,-0.010921789589868223,0.09381144729469522,-26.520035417383735,58.49696361958211,-78.0
1772309740.8290436,89.25787694359569,1.7625983023437684,-10.310656893950547,-0.16673681979055485,-1.849810114026599,9.508305851120925,0.002203279275556166,-0.008721213365395275,0.030543261909900768,-26.520035417383735,58.49696361958211,-78.75
1772309740.8425598,89.26839283334654,1.7586964692856317,-10.29568638447123,-0.19938102540235225,-1.9972800020320947,9.538978568211732,0.006555776805004151,-0.00434709142728155,-0.007635815477475192,-26.520035417383735,58.49696361958211,-78.75
1772309740.8594463,89.26839283334654,1.7586964692856317,-10.29568638447123,-0.19938102540235225,-1.9972800020320947,9.538978568211732,0.006555776805004151,-0.00434709142728155,-0.007635815477475192,-26.520035417383735,58.49696361958211,-78.75
1772309740.872591,89.26031640463246,1.7381085754441268,-10.295651912497993,-0.1912978743211382,-1.9749213114938975,9.559390918798965,-0.008688776752396666,-0.01529320847689873,-0.00545415391248228,-26.520035417383735,58.49696361958211,-78.75
1772309740.885691,89.26031640463246,1.7381085754441268,-10.295651912497993,-0.1912978743211382,-1.9749213114938975,9.559390918798965,-0.008688776752396666,-0.01529320847689873,-0.00545415391248228,-26.520035417383735,58.49696361958211,-78.75
1772309740.8996446,89.262094208046,1.7184090928421114,-10.295473644856058,-0.16919312038524992,-1.9600004071927348,9.589700668630469,-0.0032454517895034677,-0.010916383487701789,-0.007635815477475192,-26.145036568702743,58.49789286009537,-80.0
1772309740.955601,89.25899783168265,1.6931871809355032,-10.320401442058246,-0.15448265356719706,-1.9500707120577332,9.639977473927118,0.006547667651754499,-0.0010746091269459098,0.002181661564992912,-26.145036568702743,58.49789286009537,-80.0
1772309740.9698641,89.25899783168265,1.6931871809355032,-10.320401442058246,-0.15448265356719706,-1.9500707120577332,9.639977473927118,0.006547667651754499,-0.0010746091269459098,0.002181661564992912,-26.145036568702743,58.49789286009537,-80.0
1772309740.9857512,89.26458425044459,1.6835366734669546,-10.3395051462721,-0.16470558713442623,-1.9669280555409454,9.673436126223324,0.004379528040280158,-0.006534152396338413,0.009817477042468103,-26.145036568702743,58.49789286009537,-80.0
1772309741.0051398,89.26458425044459,1.6835366734669546,-10.3395051462721,-0.16470558713442623,-1.9669280555409454,9.673436126223324,0.004379528040280158,-0.006534152396338413,0.009817477042468103,-26.145036568702743,58.49789286009537,-80.0
1772309741.0271232,89.26098987577453,1.6631942438936471,-10.369403491271239,-0.1715088352257667,-1.978146429320158,9.689012262154174,0.004390340244613028,-0.010897462130119268,0.001090830782496456,-26.522823138923513,59.62196016562508,-78.75
1772309741.0530121,89.26174974605578,1.6532564915905603,-10.37916807308727,-0.17269950849826843,-1.9822587412133805,9.689342671497357,-0.005435215809643547,-0.007649307289532583,0.002181661564992912,-26.522823138923513,59.62196016562508,-78.75
1772309741.0722435,89.26750700646976,1.638689845691564,-10.413902815352623,-0.17349188826042636,-1.9849954388407864,9.689562555224331,-0.001077312178029127,-0.005456840218309286,-0.00545415391248228,-26.522823138923513,59.62196016562508,-78.75
1772309741.0909407,89.26750700646976,1.638689845691564,-10.413902815352623,-0.17349188826042636,-1.9849954388407864,9.689562555224331,-0.001077312178029127,-0.005456840218309286,-0.00545415391248228,-26.522823138923513,59.62196016562508,-78.75
1772309741.1168907,89.26316906478138,1.6282815010709746,-10.434037459376317,-0.1773643095778914,-1.9868249696430955,9.68970888538837,0.0011124518421109523,-0.008723916416478492,-0.00545415391248228,-26.520809784478118,58.8094626601496,-78.75
1772309741.138811,89.26393752267654,1.618344199393215,-10.443802183120107,-0.179991097320001,-1.9679718933315689,9.693151378185243,0.0011070457399445176,-0.006542261549588065,-0.002181661564992912,-26.520809784478118,58.8094626601496,-78.75
1772309741.15699,89.26024808921034,1.5979074358752448,-10.48355402708659,-0.1817391952192332,-1.9554253816489096,9.695442318686398,0.004376824989196941,-0.005443324962893199,-0.00545415391248228,-26.520809784478118,58.8094626601496,-78.75
1772309741.1738317,89.2663818715271,1.5833902400696096,-10.497682672660615,-0.16953870729916817,-1.9403524589946521,9.656825573510602,-0.0011151548931941696,0.009814743849923705,0.011999138607461015,-25.395038871340763,58.499751341121886,-78.0
1772309741.1927254,89.2663818715271,1.5833902400696096,-10.497682672660615,-0.16953870729916817,-1.9403524589946521,9.656825573510602,-0.0011151548931941696,0.009814743849923705,0.011999138607461015,-25.395038871340763,58.499751341121886,-78.0
1772309741.2289534,89.29329812660005,1.5611402486155912,-10.492672199355823,-0.17481640282996075,-1.9236645508781454,9.631126560973419,0.008723916416478492,0.0011124518421109521,0.00545415391248228,-25.395038871340763,58.499751341121886,-78.0
1772309741.2460623,89.29929916065984,1.5517653898652548,-10.482218681852395,-0.12480702725460749,-1.9124263088077795,9.610679043499383,0.004368715835947289,-0.002170842662557558,-0.003272492347489368,-26.897821987604505,59.621030925111825,-79.5625
1772309741.2749834,89.3090244441291,1.5525859542922895,-10.491943965321635,-0.15840350788819743,-1.9151484706046968,9.597071449034148,-0.00982014995209014,0.0010664999736962578,0.006544984694978736,-26.897821987604505,59.621030925111825,-79.5625
1772309741.2880442,89.3090244441291,1.5525859542922895,-10.491943965321635,-0.15840350788819743,-1.9151484706046968,9.597071449034148,-0.00982014995209014,0.0010664999736962578,0.006544984694978736,-26.897821987604505,59.621030925111825,-79.5625
1772309741.321118,89.29917239006163,1.5516807188738324,-10.492070805585982,-0.19578155938018202,-1.8612988928847713,9.635511065646169,-1.3515255416086598e-05,0.0054541371672260685,-0.009817477042468103,-26.521739024991376,59.184461508830594,-78.0
1772309741.3410854,89.29968835018545,1.5467987983365015,-10.487102431650378,-0.1288398478616099,-1.824066372655726,9.700569786771275,0.006574698162586673,-0.011982883461398046,0.009817477042468103,-26.521739024991376,59.184461508830594,-78.0
1772309741.3543859,89.29968835018545,1.5467987983365015,-10.487102431650378,-0.1288398478616099,-1.824066372655726,9.700569786771275,0.006574698162586673,-0.011982883461398046,0.009817477042468103,-26.521739024991376,59.184461508830594,-78.0
1772309741.368643,89.32017189664502,1.5386770671824401,-10.49661860050689,-0.08424944112298409,-1.8160140535438536,9.7438656389265,0.00546224632047572,-0.003258967044919555,0.015271630954950384,-26.521739024991376,59.184461508830594,-78.0
1772309741.383175,89.32017189664502,1.5386770671824401,-10.49661860050689,-0.08424944112298409,-1.8160140535438536,9.7438656389265,0.00546224632047572,-0.003258967044919555,0.015271630954950384,-26.521739024991376,59.184461508830594,-78.0
1772309741.4075274,89.31031993472884,1.53777145098764,-10.496744328583526,-0.12461492617268266,-1.894456932201382,9.692395863913779,-0.005459543269392503,0.0021681396114743407,0.001090830782496456,-26.895034266064727,58.49603437906885,-80.75
1772309741.4425673,89.30588380335236,1.5272808060071068,-10.526732469759253,-0.15147770556124399,-1.9466597916835973,9.658143303597873,-0.004363309733780855,-1.0812204332869278e-05,-0.007635815477475192,-26.895034266064727,58.49603437906885,-80.75
1772309741.4733114,89.30679233946387,1.5174324166525732,-10.526648566780175,-0.16948721080240287,-1.927878588529488,9.662109500992361,-8.10915324965196e-06,0.003272482300335641,0.0,-26.145036568702743,58.49789286009537,-79.1875
1772309741.501122,89.30706146996127,1.5123826141580916,-10.54138426805453,-0.1614017267377736,-1.915330173017097,9.664748961053066,0.005470355473725372,-0.006531449345255196,-0.001090830782496456,-26.145036568702743,58.49789286009537,-79.1875
1772309741.5403154,89.30330517021389,1.4918727312572166,-10.590990731861808,-0.16930186393614707,-1.9471537163238621,9.646434821994847,-0.0032778884025020756,0.002173545713640775,-0.001090830782496456,-26.894105025551465,58.12103553038786,-79.5625
1772309741.561415,89.30370160765489,1.486906854593676,-10.595874332083435,-0.16117891124250625,-1.968298772493498,9.63424696703394,8.10915324965196e-06,-0.003272482300335641,-0.003272492347489368,-26.894105025551465,58.12103553038786,-79.5625
1772309741.588353,89.3044957419877,1.4769753038468783,-10.605641503327448,-0.14584563098100325,-1.9388593851783362,9.662932314485232,0.0032751853514188583,-0.0010827182801955617,0.0,-26.894105025551465,58.12103553038786,-79.5625
1772309741.616015,89.3002047836891,1.4665617344133512,-10.62577749600008,-0.13564150425093652,-1.9192678017796003,9.68202209277774,5.406102166434639e-06,-0.0021816548668904274,0.003272492347489368,-26.89580863315911,58.80853341963634,-80.0
1772309741.6422997,89.3002047836891,1.4665617344133512,-10.62577749600008,-0.13564150425093652,-1.9192678017796003,9.68202209277774,5.406102166434639e-06,-0.0021816548668904274,0.003272492347489368,-26.89580863315911,58.80853341963634,-80.0
1772309741.6708903,89.30076632799425,1.4564621345476647,-10.655245748778315,-0.13212127141717667,-1.936344023917152,9.684690791862648,-0.004368715835947289,0.002170842662557558,-0.00545415391248228,-26.89580863315911,58.80853341963634,-80.0
1772309741.691046,89.30168584201026,1.4466147872255395,-10.655161837686451,-0.12977859578988682,-1.9477080589957927,9.686466781292333,-5.406102166434639e-06,0.0021816548668904274,-0.001090830782496456,-26.89580863315911,58.80853341963634,-80.0
1772309741.713985,89.30208699219325,1.4416492390925382,-10.660045166401574,-0.12826930594244404,-1.9352000887727732,9.687648682418686,0.002187060969056862,-0.002176248764723993,0.004363323129985824,-26.521739024991376,59.184461508830594,-79.5625
1772309741.7401123,89.29769090308852,1.4311481486367408,-10.690031313681343,-0.13395509328326485,-1.9268927525169086,9.685090112708254,0.0010908274334452137,2.7030510832173195e-06,0.0,-26.521739024991376,59.184461508830594,-79.5625
1772309741.7902915,89.29769090308852,1.4311481486367408,-10.690031313681343,-0.13395509328326485,-1.9268927525169086,9.685090112708254,0.0010908274334452137,2.7030510832173195e-06,0.0,-26.521739024991376,59.184461508830594,-79.5625
1772309741.8100493,89.29849801126481,1.4212169697593282,-10.69979753484883,-0.1444291241185966,-1.9213808912420296,9.683387413147058,-0.0010908274334452137,-2.7030510832173195e-06,-0.002181661564992912,-25.395813238435146,58.81225038168938,-79.5625
1772309741.8399603,89.29971182095734,1.4063207172623051,-10.714446797377985,-0.14470098266031117,-1.9210413323679607,9.678909173902163,0.001101639637778083,-0.0043606066826976375,0.004363323129985824,-25.395813238435146,58.81225038168938,-79.5625
1772309741.8722944,89.29948365315441,1.4061532582719247,-10.734146246911411,-0.15157210435738505,-1.9208319379347614,9.675928955709896,0.0,0.0,0.0,-26.521739024991376,59.184461508830594,-79.5625
1772309741.8893487,89.29948365315441,1.4061532582719247,-10.734146246911411,-0.15157210435738505,-1.9208319379347614,9.675928955709896,0.0,0.0,0.0,-26.521739024991376,59.184461508830594,-79.5625
1772309741.9307494,89.30029666859483,1.3962230494710197,-10.743912021193688,-0.13941925190527485,-1.9206511427676254,9.673945653794162,-0.0010962335356116484,0.00217895181580721,-0.00545415391248228,-26.521739024991376,59.184461508830594,-79.5625
1772309741.9830413,89.29614480235405,1.3858854307057882,-10.754197887132122,-0.14472035920568213,-1.9172188805750447,9.682661123646133,-0.0010881243823619964,-0.001093530484528431,0.0,-26.520809784478118,58.8094626601496,-78.75
1772309742.0208879,89.29684991129096,1.3758711753277106,-10.773812937153355,-0.14824818689685457,-1.9149347484267634,9.688461171474442,-0.0021816548668904274,-5.406102166434639e-06,-0.002181661564992912,-26.520809784478118,58.8094626601496,-78.75
1772309742.0477753,89.29725923406372,1.3709061031521996,-10.778695677916316,-0.15059591681691237,-1.9134146839975097,9.692321038513402,-5.406102166434639e-06,0.0021816548668904274,-0.14180800172453928,-27.334236530466857,59.1824481543852,-79.1875
1772309742.0859733,89.29807913815866,1.3609761679733363,-10.788461132899204,-0.14877175790470742,-1.929120316183942,9.684854401788332,0.002187060969056862,-0.002176248764723993,0.0,-27.334236530466857,59.1824481543852,-79.1875
1772309742.107069,89.29807913815866,1.3609761679733363,-10.788461132899204,-0.14877175790470742,-1.929120316183942,9.684854401788332,0.002187060969056862,-0.002176248764723993,0.0,-27.334236530466857,59.1824481543852,-79.1875
1772309742.141089,89.29879145167257,1.3509630892852762,-10.80807531228405,-0.14756608962801143,-1.9362271375233946,9.673195215040955,-0.001093530484528431,0.0010881243823619964,-0.002181661564992912,-26.521739024991376,59.184461508830594,-79.1875
1772309742.1782656,89.29423710289572,1.345586453697354,-10.813478815049297,-0.1467637308580674,-1.9409566477364042,9.665436156502226,2.7030510832173195e-06,-0.0010908274334452137,0.0,-26.521739024991376,59.184461508830594,-79.1875
1772309742.197072,89.29464945039858,1.3406214520221704,-10.818361406234382,-0.14622977005960436,-1.9441040839510713,9.666962813133704,0.0021843579179736446,-0.001085421331278779,0.0,-26.896737873672368,59.18353226831733,-79.5625
1772309742.2418196,89.29547540379038,1.330691659393277,-10.828126562754253,-0.1492278156523572,-1.9428618552577415,9.674669009482718,-0.0010827182801955617,-0.0032751853514188588,0.002181661564992912,-26.896737873672368,59.18353226831733,-79.5625
1772309742.2803564,89.29547540379038,1.330691659393277,-10.828126562754253,-0.1492278156523572,-1.9428618552577415,9.674669009482718,-0.0010827182801955617,-0.0032751853514188588,0.002181661564992912,-26.896737873672368,59.18353226831733,-79.5625
1772309742.3003926,89.29630303495463,1.3207621482062826,-10.837891685050687,-0.15456808294118143,-1.94204345504112,9.679797397069134,0.0010881243823619964,0.001093530484528431,0.0,-26.14782429024252,59.62288940613834,-78.5
1772309742.3178952,89.29630303495463,1.3207621482062826,-10.837891685050687,-0.15456808294118143,-1.94204345504112,9.679797397069134,0.0010881243823619964,0.001093530484528431,0.0,-26.14782429024252,59.62288940613834,-78.5
1772309742.3304007,89.2961964191626,1.3206787100448807,-10.84774016171657,-0.1581219711671996,-1.9414988188390883,9.68321028172005,5.406102166434639e-06,-0.0021816548668904274,-0.004363323129985824,-26.14782429024252,59.62288940613834,-78.5
1772309742.3436108,89.29661129132408,1.3157141320200063,-10.852622621162265,-0.16049533318426815,-1.9377912680934102,9.682136406623497,-2.7030510832173195e-06,0.0010908274334452137,0.002181661564992912,-26.14782429024252,59.62288940613834,-78.5
1772309742.3577788,89.29661129132408,1.3157141320200063,-10.852622621162265,-0.16049533318426815,-1.9377912680934102,9.682136406623497,-2.7030510832173195e-06,0.0010908274334452137,0.002181661564992912,-26.14782429024252,59.62288940613834,-78.5
1772309742.3701606,89.29661129132408,1.3157141320200063,-10.852622621162265,-0.1620747790944364,-1.935323934488217,9.681421754742711,-0.0010800152291123445,-0.004366012784864072,-0.001090830782496456,-25.833311895229635,58.811166267757244,-79.1875
1772309742.3848886,89.29661129132408,1.3157141320200063,-10.852622621162265,-0.1620747790944364,-1.935323934488217,9.681421754742711,-0.0010800152291123445,-0.004366012784864072,-0.001090830782496456,-25.833311895229635,58.811166267757244,-79.1875
1772309742.4254484,89.2974422938008,1.3057851879865208,-10.862387514758264,-0.1471034040831961,-1.93589291543918,9.686200906355813,-0.0021816548668904274,-5.406102166434639e-06,0.002181661564992912,-26.14782429024252,59.62288940613834,-78.0
1772309742.4571998,89.2974422938008,1.3057851879865208,-10.862387514758264,-0.1471034040831961,-1.93589291543918,9.686200906355813,-0.0021816548668904274,-5.406102166434639e-06,0.002181661564992912,-26.14782429024252,59.62288940613834,-78.0
1772309742.4869182,89.29289260424963,1.3004045490958496,-10.867791191256874,-0.14311900646150433,-1.9373808361334677,9.680781522203812,-2.7030510832173195e-06,0.0010908274334452137,-0.001090830782496456,-26.14782429024252,59.62288940613834,-78.0
1772309742.5375078,89.29372628427004,1.2904751898915687,-10.877556018705542,-0.1471659263295141,-1.9350425075015143,9.677174982589143,0.0021843579179736446,-0.001085421331278779,0.002181661564992912,-25.83532524967503,59.62366377323272,-78.5
1772309742.5943289,89.29404021774243,1.2854272393847157,-10.892286523846652,-0.1431689034201959,-1.9334697977134194,9.674774870763267,-0.00217895181580721,-0.0010962335356116484,0.0,-25.83532524967503,59.62366377323272,-78.5
1772309742.6186087,89.29404021774243,1.2854272393847157,-10.892286523846652,-0.147207421300324,-1.9290946536849232,9.676522734861472,0.0,0.0,-0.002181661564992912,-25.396742478948404,59.18724923037037,-80.0
1772309742.6624115,89.29404021774243,1.2854272393847157,-10.892286523846652,-0.147207421300324,-1.9290946536849232,9.676522734861472,0.0,0.0,-0.002181661564992912,-25.396742478948404,59.18724923037037,-80.0
1772309742.7092109,89.29487726860256,1.2754984514776913,-10.902051123866125,-0.15322353306918704,-1.932881536184128,9.667650583771948,-0.001093530484528431,0.0010881243823619964,0.0,-25.396742478948404,59.18724923037037,-80.0
1772309742.7766075,89.29571599670668,1.2655699488038386,-10.911815691324916,-0.15655750721667322,-1.932618236837421,9.668959501390805,-0.0010908274334452137,-2.7030510832173195e-06,-0.001090830782496456,-27.332532922859215,58.494950265136715,-78.5
1772309742.801453,89.29571599670668,1.2655699488038386,-10.911815691324916,-0.1561173875663756,-1.9285279494345047,9.67599778321335,-0.001093530484528431,0.0010881243823619964,0.0,-27.332532922859215,58.494950265136715,-78.5
1772309742.8438728,89.29571599670668,1.2655699488038386,-10.911815691324916,-0.15247939141835032,-1.9257976197571816,9.680681681143495,-8.10915324965196e-06,0.003272482300335641,-0.001090830782496456,-26.896737873672368,59.18353226831733,-78.75
1772309742.879107,89.29571599670668,1.2655699488038386,-10.911815691324916,-0.15674854849534098,-1.9239971940610763,9.687143874600759,0.0,0.0,0.001090830782496456,-26.896737873672368,59.18353226831733,-78.75
1772309742.9281092,89.29571599670668,1.2655699488038386,-10.911815691324916,-0.15288284376167488,-1.9294726555424406,9.691444392159136,0.0010908274334452137,2.7030510832173195e-06,0.001090830782496456,-26.14782429024252,59.62288940613834,-78.75
1772309742.9623091,89.29571599670668,1.2655699488038386,-10.911815691324916,-0.15364707277919604,-1.9364699045327733,9.694306338554307,-0.0021843579179736446,0.001085421331278779,0.002181661564992912,-26.14782429024252,59.62288940613834,-78.75
1772309742.9843702,89.29571599670668,1.2655699488038386,-10.911815691324916,-0.1541639477555451,-1.937781394134236,9.692865820202938,0.001085421331278779,0.0021843579179736446,-0.001090830782496456,-25.396742478948404,59.18724923037037,-79.25
1772309743.010272,89.29571599670668,1.2655699488038386,-10.911815691324916,-0.1541639477555451,-1.937781394134236,9.692865820202938,0.001085421331278779,0.0021843579179736446,-0.001090830782496456,-25.396742478948404,59.18724923037037,-79.25
1772309743.085145,89.29571599670668,1.2655699488038386,-10.911815691324916,-0.15140553745085358,-1.9336554840931612,9.67343648543975,-2.7030510832173195e-06,0.0010908274334452137,-0.001090830782496456,-26.522823138923513,59.62196016562508,-78.5
1772309743.1060023,89.29571599670668,1.2655699488038386,-10.911815691324916,-0.14934370780128498,-1.9292099367942026,9.665596719257456,-0.001093530484528431,0.0010881243823619964,0.0,-26.522823138923513,59.62196016562508,-78.5
1772309743.125538,89.29571599670668,1.2655699488038386,-10.911815691324916,-0.14934370780128498,-1.9292099367942026,9.665596719257456,-0.001093530484528431,0.0010881243823619964,0.0,-26.522823138923513,59.62196016562508,-78.5
1772309743.1407723,89.29571599670668,1.2655699488038386,-10.911815691324916,-0.1479715832016434,-1.9262514747267627,9.660379442439067,2.7030510832173195e-06,-0.0010908274334452137,0.002181661564992912,-26.522823138923513,59.62196016562508,-78.5
1772309743.1553974,89.29571599670668,1.2655699488038386,-10.911815691324916,-0.14705844960821798,-1.924282651269068,9.670287849826508,0.0010827182801955617,0.0032751853514188588,0.001090830782496456,-24.70924458969992,59.188952837978015,-79.5625
1772309743.1698549,89.29571599670668,1.2655699488038386,-10.911815691324916,-0.14705844960821798,-1.924282651269068,9.670287849826508,0.0010827182801955617,0.0032751853514188588,0.001090830782496456,-24.70924458969992,59.188952837978015,-79.5625
1772309743.189957,89.29571599670668,1.2655699488038386,-10.911815691324916,-0.14046133052972878,-1.927657901479837,9.681269973964227,2.7030510832173195e-06,-0.0010908274334452137,0.001090830782496456,-24.70924458969992,59.188952837978015,-79.5625
1772309743.22986,89.29571599670668,1.2655699488038386,-10.911815691324916,-0.14205217124789202,-1.9285637139996339,9.680845153486654,0.0,0.0,0.0,-26.145036568702743,58.49789286009537,-79.5625
1772309743.2644432,89.29571599670668,1.2655699488038386,-10.911815691324916,-0.14309427977060205,-1.9358567249873915,9.680562440204385,0.001085421331278779,0.0021843579179736446,0.0,-26.145036568702743,58.49789286009537,-79.5625
1772309743.3235173,89.29571599670668,1.2655699488038386,-10.911815691324916,-0.14378779135135064,-1.9407101423314732,9.680374297673149,-2.7030510832173195e-06,0.0010908274334452137,0.0,-26.522823138923513,59.62196016562508,-78.75
1772309743.3535345,89.29571599670668,1.2655699488038386,-10.911815691324916,-0.1476109952028901,-1.9372581235855002,9.680249090920302,-0.0010881243823619964,-0.001093530484528431,0.001090830782496456,-26.522823138923513,59.62196016562508,-78.75
1772309743.4064565,89.29571599670668,1.2655699488038386,-10.911815691324916,-0.15015529465810423,-1.934960843671631,9.683510878932253,0.001085421331278779,0.0021843579179736446,0.001090830782496456,-25.834241135742893,59.18616511643823,-80.5
1772309743.4314196,89.29571599670668,1.2655699488038386,-10.911815691324916,-0.15015529465810423,-1.934960843671631,9.683510878932253,0.001085421331278779,0.0021843579179736446,0.001090830782496456,-25.834241135742893,59.18616511643823,-80.5
1772309743.4538238,89.29571599670668,1.2655699488038386,-10.911815691324916,-0.15184849752386204,-1.9334320295512493,9.682336450710327,0.0,0.0,0.0,-25.834241135742893,59.18616511643823,-80.5
1772309743.4707184,89.29571599670668,1.2655699488038386,-10.911815691324916,-0.1496302036794977,-1.9324063317299218,9.681554881847857,0.0010881243823619964,0.001093530484528431,0.001090830782496456,-25.834241135742893,59.18616511643823,-80.5
1772309743.4850307,89.29571599670668,1.2655699488038386,-10.911815691324916,-0.1481539539060391,-1.9317237412876236,9.68103475650058,0.001085421331278779,0.0021843579179736446,-0.001090830782496456,-25.834241135742893,59.18616511643823,-80.0
1772309743.5137935,89.29571599670668,1.2655699488038386,-10.911815691324916,-0.14714665886603434,-1.9413047892849415,9.67399839547751,0.0,0.0,0.001090830782496456,-25.834241135742893,59.18616511643823,-80.0
1772309743.5764484,89.29571599670668,1.2655699488038386,-10.911815691324916,-0.14984628401290345,-1.9376538544903916,9.669315775817958,0.0,0.0,0.002181661564992912,-26.522823138923513,59.62196016562508,-78.5
1772309743.593028,89.29571599670668,1.2655699488038386,-10.911815691324916,-0.14984628401290345,-1.9376538544903916,9.669315775817958,0.0,0.0,0.002181661564992912,-26.522823138923513,59.62196016562508,-78.5
1772309743.6569784,89.29571599670668,1.2655699488038386,-10.911815691324916,-0.1549713776241945,-1.9419226901448403,9.666199544742817,0.0010908274334452137,2.7030510832173195e-06,0.001090830782496456,-26.522823138923513,59.62196016562508,-78.5
1772309743.7208412,89.29571599670668,1.2655699488038386,-10.911815691324916,-0.15504525783643713,-1.94141016204746,9.670815951187532,-0.0021816548668904274,-5.406102166434639e-06,0.0,-25.395038871340763,58.499751341121886,-78.5
1772309743.7469237,89.29571599670668,1.2655699488038386,-10.911815691324916,-0.1550944242923886,-1.9410690803239676,9.677233229815169,0.001093530484528431,-0.0010881243823619964,0.001090830782496456,-25.395038871340763,58.499751341121886,-78.5
1772309743.7602315,89.29571599670668,1.2655699488038386,-10.911815691324916,-0.1550944242923886,-1.9410690803239676,9.677233229815169,0.001093530484528431,-0.0010881243823619964,0.001090830782496456,-25.395038871340763,58.499751341121886,-78.5
1772309743.784376,89.29571599670668,1.2655699488038386,-10.911815691324916,-0.15514372222397133,-1.934151891372694,9.681503857056162,0.0,0.0,0.0,-25.833311895229635,58.811166267757244,-78.5
1772309743.8178697,89.29571599670668,1.2655699488038386,-10.911815691324916,-0.15517652944674565,-1.929548579395685,9.677655688364373,-0.0010962335356116484,0.00217895181580721,-0.002181661564992912,-25.833311895229635,58.811166267757244,-78.5
1772309743.8345149,89.29571599670668,1.2655699488038386,-10.911815691324916,-0.15517652944674565,-1.929548579395685,9.677655688364373,-0.0010962335356116484,0.00217895181580721,-0.002181661564992912,-25.833311895229635,58.811166267757244,-78.5
1772309743.8647704,89.29571599670668,1.2655699488038386,-10.911815691324916,-0.15517349498046273,-1.9365204310089823,9.675094775086848,-0.0010881243823619964,-0.001093530484528431,0.0,-25.833311895229635,58.811166267757244,-79.5625
1772309743.8817327,89.29571599670668,1.2655699488038386,-10.911815691324916,-0.1585165770142595,-1.9411684094791324,9.67673562761525,0.0010962335356116484,-0.00217895181580721,0.0,-25.833311895229635,58.811166267757244,-79.5625
1772309743.900848,89.29571599670668,1.2655699488038386,-10.911815691324916,-0.1607579389674504,-1.937571384355274,9.677827596643377,0.0010908274334452137,2.7030510832173195e-06,0.001090830782496456,-25.833311895229635,58.811166267757244,-79.5625
1772309743.9333184,89.29571599670668,1.2655699488038386,-10.911815691324916,-0.16224954030964536,-1.9351776043167495,9.678554289833503,0.0,0.0,-0.001090830782496456,-25.398600959974925,59.93724692773235,-78.75
1772309743.9697998,89.29571599670668,1.2655699488038386,-10.911815691324916,-0.16324218434059737,-1.9335845704413865,9.675692784326518,-0.00217895181580721,-0.0010962335356116484,0.0,-25.398600959974925,59.93724692773235,-78.75
1772309743.9946961,89.29571599670668,1.2655699488038386,-10.911815691324916,-0.15720428587802765,-1.9358529474255255,9.67713359608405,0.0010908274334452137,2.7030510832173195e-06,0.0,-25.398600959974925,59.93724692773235,-78.75
1772309744.0246527,89.29571599670668,1.2655699488038386,-10.911815691324916,-0.15720428587802765,-1.9358529474255255,9.67713359608405,0.0010908274334452137,2.7030510832173195e-06,0.0,-25.398600959974925,59.93724692773235,-78.75
1772309744.0593805,89.29571599670668,1.2655699488038386,-10.911815691324916,-0.1598846238755406,-1.9340340037362003,9.678092440213764,-5.406102166434639e-06,0.0021816548668904274,0.002181661564992912,-25.395813238435146,58.81225038168938,-79.25
1772309744.073605,89.29571599670668,1.2655699488038386,-10.911815691324916,-0.15831496833215114,-1.9361603293649112,9.678730540271099,-2.7030510832173195e-06,0.0010908274334452137,-0.001090830782496456,-25.395813238435146,58.81225038168938,-79.25
1772309744.1013148,89.29571599670668,1.2655699488038386,-10.911815691324916,-0.15727038010222677,-1.9375753753182048,9.67915518873121,-0.0010881243823619964,-0.001093530484528431,0.001090830782496456,-25.395813238435146,58.81225038168938,-79.25
1772309744.1352642,89.29571599670668,1.2655699488038386,-10.911815691324916,-0.15323011686681634,-1.9385087834908366,9.67943778753778,-0.0010881243823619964,-0.001093530484528431,-0.001090830782496456,-25.83702885728267,60.311161662481204,-78.75
1772309744.1525028,89.29571599670668,1.2655699488038386,-10.911815691324916,-0.15054136681634825,-1.9391299562028705,9.679625853886717,-0.0010989365866948657,0.003269779249252424,-0.001090830782496456,-25.83702885728267,60.311161662481204,-78.75
1772309744.1663811,89.29571599670668,1.2655699488038386,-10.911815691324916,-0.1487520336930678,-1.9395433397037753,9.679751009941096,-0.0021816548668904274,-5.406102166434639e-06,0.001090830782496456,-25.83702885728267,60.311161662481204,-78.75
1772309744.1948671,89.29571599670668,1.2655699488038386,-10.911815691324916,-0.1487520336930678,-1.9395433397037753,9.679751009941096,-0.0021816548668904274,-5.406102166434639e-06,0.001090830782496456,-25.83702885728267,60.311161662481204,-78.75
1772309744.2367766,89.29571599670668,1.2655699488038386,-10.911815691324916,-0.15425145536210708,-1.9398350200102035,9.6798342998972,0.0010908274334452137,2.7030510832173195e-06,0.002181661564992912,-27.647819684966485,59.6191724440853,-79.25
1772309744.2555,89.29571599670668,1.2655699488038386,-10.911815691324916,-0.15791125905028744,-1.940029129995849,9.679889728432578,-0.0010908274334452137,-2.7030510832173195e-06,-0.001090830782496456,-27.647819684966485,59.6191724440853,-79.25
1772309744.2765722,89.29571599670668,1.2655699488038386,-10.911815691324916,-0.16035510662427171,-1.9368132065857344,9.679926615503694,-0.0010908274334452137,-2.7030510832173195e-06,0.002181661564992912,-27.647819684966485,59.6191724440853,-79.25
1772309744.2902002,89.29571599670668,1.2655699488038386,-10.911815691324916,-0.16035510662427171,-1.9368132065857344,9.679926615503694,-0.0010908274334452137,-2.7030510832173195e-06,0.002181661564992912,-27.647819684966485,59.6191724440853,-79.25
1772309744.315142,89.29571599670668,1.2655699488038386,-10.911815691324916,-0.1586446475501674,-1.9313196549411245,9.679951163437467,0.0010908274334452137,2.7030510832173195e-06,-0.002181661564992912,-26.14782429024252,59.62288940613834,-79.5625
1772309744.343582,89.29571599670668,1.2655699488038386,-10.911815691324916,-0.15749806704124464,-1.9310088591258405,9.679967499813175,-0.001093530484528431,0.0010881243823619964,-0.001090830782496456,-26.14782429024252,59.62288940613834,-79.5625
1772309744.3587675,89.29571599670668,1.2655699488038386,-10.911815691324916,-0.15749806704124464,-1.9310088591258405,9.679967499813175,-0.001093530484528431,0.0010881243823619964,-0.001090830782496456,-26.14782429024252,59.62288940613834,-79.5625
1772309744.3757448,89.29571599670668,1.2655699488038386,-10.911815691324916,-0.1533982181856753,-1.9274486374431885,9.679978371488719,8.10915324965196e-06,-0.003272482300335641,0.001090830782496456,-26.14782429024252,59.62288940613834,-79.5625
1772309744.3965032,89.29571599670668,1.2655699488038386,-10.911815691324916,-0.15066152546842035,-1.9284244511208766,9.683330718174668,-0.0010989365866948657,0.003269779249252424,0.0,-25.398600959974925,59.93724692773235,-78.75
1772309744.4173863,89.29571599670668,1.2655699488038386,-10.911815691324916,-0.15066152546842035,-1.9284244511208766,9.683330718174668,-0.0010989365866948657,0.003269779249252424,0.0,-25.398600959974925,59.93724692773235,-78.75
1772309744.4463732,89.29571599670668,1.2655699488038386,-10.911815691324916,-0.14884857613813407,-1.9257287427856142,9.675526332324043,2.7030510832173195e-06,-0.0010908274334452137,0.001090830782496456,-25.398600959974925,59.93724692773235,-78.75
1772309744.4614158,89.29571599670668,1.2655699488038386,-10.911815691324916,-0.15097889094582423,-1.9272881695409292,9.680367935843112,0.002176248764723993,0.002187060969056862,0.0,-26.143332961095098,57.810394970846886,-79.5625
1772309744.4766524,89.29571599670668,1.2655699488038386,-10.911815691324916,-0.15097889094582423,-1.9272881695409292,9.680367935843112,0.002176248764723993,0.002187060969056862,0.0,-26.143332961095098,57.810394970846886,-79.5625
1772309744.4945552,89.29571599670668,1.2655699488038386,-10.911815691324916,-0.15239659165316635,-1.928325950626653,9.680244857193479,-2.7030510832173195e-06,0.0010908274334452137,-0.001090830782496456,-26.143332961095098,57.810394970846886,-79.5625
1772309744.5244365,89.29571599670668,1.2655699488038386,-10.911815691324916,-0.1533317665349618,-1.9323616837836388,9.680162949727025,-0.001093530484528431,0.0010881243823619964,0.001090830782496456,-26.143332961095098,57.810394970846886,-79.5625
1772309744.5733237,89.29571599670668,1.2655699488038386,-10.911815691324916,-0.15395411497220873,-1.9350474191175198,9.680108441223068,-0.0021816548668904274,-5.406102166434639e-06,0.002181661564992912,-26.145810935797126,58.810391900662864,-79.5625
1772309744.5937934,89.29571599670668,1.2655699488038386,-10.911815691324916,-0.15395411497220873,-1.9350474191175198,9.680108441223068,-0.0021816548668904274,-5.406102166434639e-06,0.002181661564992912,-26.145810935797126,58.810391900662864,-79.5625
1772309744.6192925,89.29571599670668,1.2655699488038386,-10.911815691324916,-0.15437657000729518,-1.933489644543377,9.683417278129903,0.002187060969056862,-0.002176248764723993,-0.001090830782496456,-26.145810935797126,58.810391900662864,-79.5625
1772309744.6320078,89.29571599670668,1.2655699488038386,-10.911815691324916,-0.15800281055122414,-1.9324612520679534,9.685619272129273,0.0010908274334452137,2.7030510832173195e-06,0.002181661564992912,-26.145810935797126,58.810391900662864,-79.5625
1772309744.6447346,89.29571599670668,1.2655699488038386,-10.911815691324916,-0.15800281055122414,-1.9324612520679534,9.685619272129273,0.0010908274334452137,2.7030510832173195e-06,0.002181661564992912,-26.145810935797126,58.810391900662864,-79.5625
1772309744.6637027,89.29571599670668,1.2655699488038386,-10.911815691324916,-0.1604160331254478,-1.9317768683634557,9.687084674537967,0.0010827182801955617,0.0032751853514188588,0.001090830782496456,-26.145810935797126,58.810391900662864,-79.5625
1772309744.6983078,89.29571599670668,1.2655699488038386,-10.911815691324916,-0.1586769043539203,-1.931313129550993,9.684714771764018,-0.0010908274334452137,-2.7030510832173195e-06,0.001090830782496456,-26.145810935797126,58.810391900662864,-79.5625
1772309744.7415955,89.29571599670668,1.2655699488038386,-10.911815691324916,-0.15751953358381005,-1.9310045165516014,9.679792516234183,0.0,0.0,0.0,-27.334236530466857,59.1824481543852,-78.0
1772309744.7594051,89.29571599670668,1.2655699488038386,-10.911815691324916,-0.15751953358381005,-1.9310045165516014,9.679792516234183,0.0,0.0,0.0,-27.334236530466857,59.1824481543852,-78.0
1772309744.788477,89.29571599670668,1.2655699488038386,-10.911815691324916,-0.15340421482776942,-1.9307908489457528,9.676516810164275,5.406102166434639e-06,-0.0021816548668904274,0.0,-27.334236530466857,59.1824481543852,-78.0
1772309744.8075602,89.29571599670668,1.2655699488038386,-10.911815691324916,-0.15340421482776942,-1.9307908489457528,9.676516810164275,5.406102166434639e-06,-0.0021816548668904274,0.0,-27.334236530466857,59.1824481543852,-78.0
1772309744.8489635,89.29571599670668,1.2655699488038386,-10.911815691324916,-0.15066551616674706,-1.9306486555408844,9.677681976074105,-5.406102166434639e-06,0.0021816548668904274,0.001090830782496456,-26.145036568702743,58.49789286009537,-78.5
1772309744.875232,89.29571599670668,1.2655699488038386,-10.911815691324916,-0.14884294280110533,-1.9305540274183488,9.68180249267866,0.001093530484528431,-0.0010881243823619964,0.001090830782496456,-26.145036568702743,58.49789286009537,-78.5
1772309744.9040866,89.29571599670668,1.2655699488038386,-10.911815691324916,-0.1476300405857492,-1.930491053459867,9.681199538742485,-5.406102166434639e-06,0.0021816548668904274,0.0,-26.145036568702743,58.49789286009537,-78.5
1772309744.9269073,89.29571599670668,1.2655699488038386,-10.911815691324916,-0.15351307058485697,-1.9304657231983346,9.684143391340717,-0.0021843579179736446,0.001085421331278779,0.001090830782496456,-25.834241135742893,59.18616511643823,-79.1875
1772309744.9486651,89.29571599670668,1.2655699488038386,-10.911815691324916,-0.15742816133151208,-1.9304488661922425,9.686102492359852,-0.0010908274334452137,-2.7030510832173195e-06,0.0,-25.834241135742893,59.18616511643823,-79.1875
1772309744.9643207,89.29571599670668,1.2655699488038386,-10.911815691324916,-0.16002532138679562,-1.9337827494802042,9.687406252203495,-8.10915324965196e-06,0.003272482300335641,0.001090830782496456,-25.834241135742893,59.18616511643823,-79.1875
1772309744.9815688,89.29571599670668,1.2655699488038386,-10.911815691324916,-0.16002532138679562,-1.9337827494802042,9.687406252203495,-8.10915324965196e-06,0.003272482300335641,0.001090830782496456,-25.834241135742893,59.18616511643823,-79.1875
1772309744.9996278,89.29571599670668,1.2655699488038386,-10.911815691324916,-0.15734926977062585,-1.93077389811921,9.692196404661441,0.0010908274334452137,2.7030510832173195e-06,0.0,-25.39782659288054,59.62474788716486,-78.75
1772309745.0216353,89.29571599670668,1.2655699488038386,-10.911815691324916,-0.15734926977062585,-1.93077389811921,9.692196404661441,0.0010908274334452137,2.7030510832173195e-06,0.0,-25.39782659288054,59.62474788716486,-78.75
1772309745.0409992,89.29571599670668,1.2655699488038386,-10.911815691324916,-0.15664429670146382,-1.9273005626201485,9.694806794474061,-0.0010962335356116484,0.00217895181580721,-0.001090830782496456,-25.39782659288054,59.62474788716486,-78.75
1772309745.089656,89.29571599670668,1.2655699488038386,-10.911815691324916,-0.15616685589681548,-1.9283341980824338,9.689853756319756,-8.10915324965196e-06,0.003272482300335641,0.0,-25.395813238435146,58.81225038168938,-78.0
1772309745.1309576,89.29571599670668,1.2655699488038386,-10.911815691324916,-0.1558491243746853,-1.92902207093612,9.683212453049808,2.7030510832173195e-06,-0.0010908274334452137,-0.001090830782496456,-25.395813238435146,58.81225038168938,-78.0
1772309745.1571083,89.29571599670668,1.2655699488038386,-10.911815691324916,-0.15562938849381508,-1.9328249440734158,9.678792739911875,5.406102166434639e-06,-0.0021816548668904274,-0.001090830782496456,-25.395813238435146,58.81225038168938,-78.0
1772309745.1836216,89.29571599670668,1.2655699488038386,-10.911815691324916,-0.15562938849381508,-1.9328249440734158,9.678792739911875,5.406102166434639e-06,-0.0021816548668904274,-0.001090830782496456,-25.395813238435146,58.81225038168938,-78.0
1772309745.2525535,89.29571599670668,1.2655699488038386,-10.911815691324916,-0.1554831567197066,-1.9353557136654098,9.675851470190013,-0.0010881243823619964,-0.001093530484528431,-0.001090830782496456,-26.146740176310384,59.18539074934385,-79.5625
1772309745.2972665,89.29571599670668,1.2655699488038386,-10.911815691324916,-0.15204902877252865,-1.9336865220189359,9.680584311460887,0.0010962335356116484,-0.00217895181580721,0.001090830782496456,-26.146740176310384,59.18539074934385,-79.5625
1772309745.4006438,89.29571599670668,1.2655699488038386,-10.911815691324916,-0.15158786569658217,-1.9318447388386222,9.686949000576016,0.001093530484528431,-0.0010881243823619964,0.0,-26.521739024991376,59.184461508830594,-79.25
1772309745.4522388,89.29571599670668,1.2655699488038386,-10.911815691324916,-0.15158786569658217,-1.9318447388386222,9.686949000576016,0.001093530484528431,-0.0010881243823619964,0.0,-26.521739024991376,59.184461508830594,-79.25
1772309745.5038764,89.29571599670668,1.2655699488038386,-10.911815691324916,-0.15613866988212674,-1.9347116871334507,9.684624482257917,-0.0010908274334452137,-2.7030510832173195e-06,0.0,-25.396742478948404,59.18724923037037,-78.5
1772309745.5720248,169.59817756129857,36.81998238867754,136.8522785067344,-0.1591754683339792,-1.9332745077605373,9.68976776469843,2.7030510832173195e-06,-0.0010908274334452137,0.0,-25.14674324649441,59.18786872404588,-78.375
1772309745.6108153,89.29571599670668,1.2655699488038386,-10.911815691324916,-0.15784303324102847,-1.9356548932772337,9.689845450001044,0.0,0.0,-0.001090830782496456,-25.14674324649441,59.18786872404588,-78.375
1772309745.6532667,89.29571599670668,1.2655699488038386,-10.911815691324916,-0.1569728907753174,-1.9305488103735247,9.693242260409452,2.7030510832173195e-06,-0.0010908274334452137,0.0,-26.148598657336905,59.935388446705836,-78.75
1772309745.6742926,89.29571599670668,1.2655699488038386,-10.911815691324916,-0.1569728907753174,-1.9305488103735247,9.693242260409452,2.7030510832173195e-06,-0.0010908274334452137,0.0,-26.148598657336905,59.935388446705836,-78.75
1772309745.7194924,89.29571599670668,1.2655699488038386,-10.911815691324916,-0.15304871924730407,-1.9271424801376038,9.692157688084068,-0.0010908274334452137,-2.7030510832173195e-06,0.004363323129985824,-26.148598657336905,59.935388446705836,-78.75
1772309745.7372587,89.29571599670668,1.2655699488038386,-10.911815691324916,-0.15304871924730407,-1.9271424801376038,9.692157688084068,-0.0010908274334452137,-2.7030510832173195e-06,0.004363323129985824,-26.148598657336905,59.935388446705836,-78.75
1772309745.7719846,89.29571599670668,1.2655699488038386,-10.911815691324916,-0.1504372269312794,-1.9248756054168001,9.688090805609672,-0.0010962335356116484,0.00217895181580721,-0.001090830782496456,-26.14782429024252,59.62288940613834,-79.5625
1772309745.7989986,89.29571599670668,1.2655699488038386,-10.911815691324916,-0.14869101886505945,-1.9267121270499663,9.685384340753016,0.001085421331278779,0.0021843579179736446,-0.001090830782496456,-26.14782429024252,59.62288940613834,-79.5625
1772309745.836709,89.29571599670668,1.2655699488038386,-10.911815691324916,-0.14752893690341226,-1.9279343116815473,9.683583218624104,-0.0010881243823619964,-0.001093530484528431,0.0,-25.834241135742893,59.18616511643823,-79.25
1772309745.8686557,89.29571599670668,1.2655699488038386,-10.911815691324916,-0.150100685776453,-1.9287559510033536,9.682384591967166,0.0,0.0,0.0,-25.834241135742893,59.18616511643823,-79.25
1772309745.893051,89.29571599670668,1.2655699488038386,-10.911815691324916,-0.15516554646254138,-1.9259659304586787,9.68158691931651,-0.001093530484528431,0.0010881243823619964,-0.001090830782496456,-25.834241135742893,59.18616511643823,-79.25
1772309745.9258208,89.29571599670668,1.2655699488038386,-10.911815691324916,-0.1585195764665598,-1.9307994058271907,9.684401188785406,-0.0010989365866948657,0.003269779249252424,0.0,-25.396742478948404,59.18724923037037,-78.75
1772309745.9541981,89.29571599670668,1.2655699488038386,-10.911815691324916,-0.1585195764665598,-1.9307994058271907,9.684401188785406,-0.0010989365866948657,0.003269779249252424,0.0,-25.396742478948404,59.18724923037037,-78.75
1772309745.979688,89.29571599670668,1.2655699488038386,-10.911815691324916,-0.15406144309284225,-1.9339994514871055,9.686274053679506,2.7030510832173195e-06,-0.0010908274334452137,0.001090830782496456,-25.396742478948404,59.18724923037037,-78.75
1772309746.0069404,89.29571599670668,1.2655699488038386,-10.911815691324916,-0.15109460513324607,-1.9361290461269267,9.687520424345259,-0.0010989365866948657,0.003269779249252424,-0.001090830782496456,-26.89580863315911,58.80853341963634,-78.75
1772309746.036867,89.29571599670668,1.2655699488038386,-10.911815691324916,-0.15109460513324607,-1.9361290461269267,9.687520424345259,-0.0010989365866948657,0.003269779249252424,-0.001090830782496456,-26.89580863315911,58.80853341963634,-78.75
1772309746.06434,89.29571599670668,1.2655699488038386,-10.911815691324916,-0.15581869958949432,-1.9342177443377582,9.688349870100444,0.0,0.0,0.0,-26.89580863315911,58.80853341963634,-78.75
1772309746.0797083,89.29571599670668,1.2655699488038386,-10.911815691324916,-0.15896253167853464,-1.9329457943477064,9.682211633570365,2.7030510832173195e-06,-0.0010908274334452137,-0.001090830782496456,-27.645031963426707,58.49417589804233,-78.0
1772309746.0954947,89.29571599670668,1.2655699488038386,-10.911815691324916,-0.15770961537767464,-1.9320910367357533,9.678126705728193,-0.0010908274334452137,-2.7030510832173195e-06,0.0,-27.645031963426707,58.49417589804233,-78.0
1772309746.1272671,89.29571599670668,1.2655699488038386,-10.911815691324916,-0.15770961537767464,-1.9320910367357533,9.678126705728193,-0.0010908274334452137,-2.7030510832173195e-06,0.0,-27.645031963426707,58.49417589804233,-78.0
1772309746.1529934,89.29571599670668,1.2655699488038386,-10.911815691324916,-0.15353071213823358,-1.9315139159910804,9.67875334358818,-0.0010908274334452137,-2.7030510832173195e-06,0.0,-27.645031963426707,58.49417589804233,-78.0
1772309746.1682563,89.29571599670668,1.2655699488038386,-10.911815691324916,-0.15409480015100427,-1.931138137684548,9.679170364084,5.406102166434639e-06,-0.0021816548668904274,0.001090830782496456,-26.521739024991376,59.184461508830594,-78.75
1772309746.19404,89.29571599670668,1.2655699488038386,-10.911815691324916,-0.1544701944222272,-1.9308880614192694,9.68279299827286,2.7030510832173195e-06,-0.0010908274334452137,0.001090830782496456,-26.521739024991376,59.184461508830594,-78.75
1772309746.3302035,89.29571599670668,1.2655699488038386,-10.911815691324916,-0.15501438387920077,-1.9234844890514893,9.677840555208993,-0.0010881243823619964,-0.001093530484528431,0.0,-26.896737873672368,59.18353226831733,-78.5
1772309746.377068,89.29571599670668,1.2655699488038386,-10.911815691324916,-0.15501438387920077,-1.9234844890514893,9.677840555208993,-0.0010881243823619964,-0.001093530484528431,0.0,-26.896737873672368,59.18353226831733,-78.5
1772309746.4380915,89.29571599670668,1.2655699488038386,-10.911815691324916,-0.15174535478589402,-1.922441253211429,9.681908025321484,-2.7030510832173195e-06,0.0010908274334452137,0.003272492347489368,-27.639611393766025,56.306682614069885,-82.0
1772309746.5090828,89.29571599670668,1.2655699488038386,-10.911815691324916,-0.149569852441746,-1.9217469914135765,9.67123443441545,0.0,0.0,0.003272492347489368,-27.639611393766025,56.306682614069885,-82.0
1772309746.5967755,89.29571599670668,1.2655699488038386,-10.911815691324916,-0.14812207993366905,-1.9212849679425184,9.680856837435904,0.0032670761981692066,0.002189764020140079,0.003272492347489368,-26.141319606649702,56.99789746537141,-80.0
1772309746.6701367,89.29571599670668,1.2655699488038386,-10.911815691324916,-0.14378863475845302,-1.931004511693116,9.687260439156733,-0.001093530484528431,0.0010881243823619964,0.001090830782496456,-26.141319606649702,56.99789746537141,-80.0
1772309746.6935937,89.29571599670668,1.2655699488038386,-10.911815691324916,-0.14378863475845302,-1.931004511693116,9.687260439156733,-0.001093530484528431,0.0010881243823619964,0.001090830782496456,-26.141319606649702,56.99789746537141,-80.0
1772309746.776603,89.29571599670668,1.2655699488038386,-10.911815691324916,-0.13420628342549323,-1.9408012827175594,9.691521964569025,-1.8921357582521238e-05,0.007635792034116496,-0.002181661564992912,-27.332532922859215,58.494950265136715,-80.0
1772309746.8378024,89.29571599670668,1.2655699488038386,-10.911815691324916,-0.13116614799031126,-1.9506743149366204,9.697703073833868,5.406102166434639e-06,-0.0021816548668904274,-0.001090830782496456,-27.332532922859215,58.494950265136715,-80.0
1772309746.8552926,89.29571599670668,1.2655699488038386,-10.911815691324916,-0.12579787038152482,-1.9572364184872229,9.701816533002106,-0.002189764020140079,0.0032670761981692066,-0.007635815477475192,-27.3333072899536,58.8074493057042,-79.1875
1772309746.9019928,89.29571599670668,1.2655699488038386,-10.911815691324916,-0.12554557573111985,-1.971647018510468,9.704553994128217,-0.0010962335356116484,0.00217895181580721,-0.002181661564992912,-27.3333072899536,58.8074493057042,-79.1875
1772309746.9825726,89.29571599670668,1.2655699488038386,-10.911815691324916,-0.12209888783986991,-1.9544680112491146,9.699685520513562,-2.7030510832173195e-06,0.0010908274334452137,-0.004363323129985824,-26.14410732818948,58.12289401141438,-78.75
1772309747.0246937,89.29571599670668,1.2655699488038386,-10.911815691324916,-0.1298073034531574,-1.956440846874171,9.696445605707423,-0.001093530484528431,0.0010881243823619964,-0.003272492347489368,-26.14410732818948,58.12289401141438,-78.75
1772309747.0797713,89.29571599670668,1.2655699488038386,-10.911815691324916,-0.1349703243439005,-1.9443733411957849,9.697634590303476,-0.001101639637778083,0.0043606066826976375,-0.001090830782496456,-27.334236530466857,59.1824481543852,-80.0
1772309747.1256175,89.29571599670668,1.2655699488038386,-10.911815691324916,-0.13840625707196766,-1.9363425509696899,9.698425846270322,-1.0812204332869278e-05,0.004363309733780855,-0.002181661564992912,-27.334236530466857,59.1824481543852,-80.0
1772309747.1642177,89.29571599670668,1.2655699488038386,-10.911815691324916,-0.14403793335782378,-1.9310064388862147,9.695607306570029,2.7030510832173195e-06,-0.0010908274334452137,0.0,-26.89580863315911,58.80853341963634,-79.5625
1772309747.2317271,89.29571599670668,1.2655699488038386,-10.911815691324916,-0.14403793335782378,-1.9310064388862147,9.695607306570029,2.7030510832173195e-06,-0.0010908274334452137,0.0,-26.89580863315911,58.80853341963634,-79.5625
1772309747.2874978,89.29571599670668,1.2655699488038386,-10.911815691324916,-0.1544676647883504,-1.9308169955445227,9.690386488177316,-0.001085421331278779,-0.0021843579179736446,0.002181661564992912,-26.145036568702743,58.49789286009537,-80.0
1772309747.3412986,89.29571599670668,1.2655699488038386,-10.911815691324916,-0.16140853454763185,-1.9306909231168476,9.690257203564647,0.0010962335356116484,-0.00217895181580721,0.002181661564992912,-26.145036568702743,58.49789286009537,-80.0
1772309747.3940866,89.29571599670668,1.2655699488038386,-10.911815691324916,-0.16140853454763185,-1.9306909231168476,9.690257203564647,0.0010962335356116484,-0.00217895181580721,0.002181661564992912,-26.145036568702743,58.49789286009537,-80.0
1772309747.4247227,89.29571599670668,1.2655699488038386,-10.911815691324916,-0.15933740296341642,-1.9305904451201787,9.69351627780644,-0.001085421331278779,-0.0021843579179736446,0.0,-25.833311895229635,58.811166267757244,-79.1875
1772309747.5053146,89.29571599670668,1.2655699488038386,-10.911815691324916,-0.1579590880301768,-1.9305235781358085,9.695685155308109,2.7030510832173195e-06,-0.0010908274334452137,0.002181661564992912,-26.14782429024252,59.62288940613834,-79.1875
1772309747.6240644,89.29571599670668,1.2655699488038386,-10.911815691324916,-0.1570418348388925,-1.930479078904663,9.69712851905752,-0.0010881243823619964,-0.001093530484528431,0.0,-26.14782429024252,59.62288940613834,-79.1875
1772309747.706819,89.29571599670668,1.2655699488038386,-10.911815691324916,-0.15976822542150698,-1.933802855702822,9.698089061509323,5.406102166434639e-06,-0.0021816548668904274,0.0,-26.520809784478118,58.8094626601496,-78.75
1772309747.76823,89.29571599670668,1.2655699488038386,-10.911815691324916,-0.16159918610283094,-1.9293245891585553,9.692038068366397,0.0,0.0,-0.001090830782496456,-26.520809784478118,58.8094626601496,-78.75
1772309747.8018448,89.29571599670668,1.2655699488038386,-10.911815691324916,-0.16281766998308106,-1.926344352798861,9.688011200023803,-0.001093530484528431,0.0010881243823619964,0.0,-26.89580863315911,58.80853341963634,-78.75
1772309747.881162,89.29571599670668,1.2655699488038386,-10.911815691324916,-0.16362855739403073,-1.924361038792906,9.692021587539513,-5.406102166434639e-06,0.0021816548668904274,0.0,-26.89580863315911,58.80853341963634,-78.75
1772309747.9190943,89.29571599670668,1.2655699488038386,-10.911815691324916,-0.16362855739403073,-1.924361038792906,9.692021587539513,-5.406102166434639e-06,0.0021816548668904274,0.0,-26.89580863315911,58.80853341963634,-78.75
1772309747.9584322,89.29571599670668,1.2655699488038386,-10.911815691324916,-0.16082309247060098,-1.9230328763748257,9.694690455632253,0.0010908274334452137,2.7030510832173195e-06,0.001090830782496456,-26.522823138923513,59.62196016562508,-80.0
1772309748.0324757,89.29571599670668,1.2655699488038386,-10.911815691324916,-0.15771361555383856,-1.921560788684033,9.687613198388565,2.7030510832173195e-06,-0.0010908274334452137,0.002181661564992912,-26.521739024991376,59.184461508830594,-79.1875
1772309748.1048357,89.29571599670668,1.2655699488038386,-10.911815691324916,-0.15771361555383856,-1.921560788684033,9.687613198388565,2.7030510832173195e-06,-0.0010908274334452137,0.002181661564992912,-26.521739024991376,59.184461508830594,-79.1875
1772309748.1415598,89.29571599670668,1.2655699488038386,-10.911815691324916,-0.15688676475018282,-1.921169341208214,9.681721386775273,-5.406102166434639e-06,0.0021816548668904274,0.0,-26.521739024991376,59.184461508830594,-78.75
1772309748.1891136,89.2304158820177,1.269081838110801,-10.942576765968312,-0.15968160621408942,-1.9209171263879974,9.677800451962474,-0.0043714188870305065,0.003261670096002772,-0.04363323129985824,-26.521739024991376,59.184461508830594,-78.75
1772309748.2584503,89.11891214981914,1.2384872510728588,-10.953857207095401,-0.15818815144849746,-1.9240860925775922,9.675191113644269,-0.006553073753920934,0.003256263993836337,-0.04036073895236887,-28.02359290074186,59.93074224413954,-79.5625
1772309748.329424,89.08004325833697,1.2298354433172658,-10.949273464144467,-0.16388447685940052,-1.926211582381468,9.693525298385639,0.002189764020140079,-0.0032670761981692066,-0.019634954084936207,-28.02359290074186,59.93074224413954,-79.5625
1772309748.373524,88.99580809829993,1.221311030400266,-10.999800982302714,-0.1074634919184369,-1.9274768682633192,9.682310711573521,-0.011993695665730915,-0.002211388428805818,-0.003272492347489368,-27.645031963426707,58.49417589804233,-78.5
1772309748.4621456,88.90471386808098,1.2317597642667426,-11.059964113381572,-0.0837556794800112,-1.9981513399116533,9.703308341995315,-0.006580104264753107,0.014164538328288475,-0.0272707695624114,-26.521739024991376,59.184461508830594,-80.375
1772309748.5496404,88.92884223235887,1.2391724001324567,-11.055336020904013,-0.11778677979082375,-1.9387133504121286,9.722272334885197,0.0043497944783647685,0.0054649493715589375,0.008726646259971648,-26.521739024991376,59.184461508830594,-80.375
1772309748.6283703,88.91942497601579,1.2332389021526713,-11.060297818015707,-0.14011082191010904,-2.029616988417266,9.734892660311733,-0.005446028013976417,-0.0032859975557517278,0.0,-26.520809784478118,58.8094626601496,-78.5
1772309748.6909118,88.89954156655843,1.231096442931244,-11.08018122747307,-0.17511243310754393,-2.0600561657277323,9.73660112249018,-0.001093530484528431,0.0010881243823619964,-0.002181661564992912,-26.520809784478118,58.8094626601496,-78.5
1772309748.7378724,88.91913767225827,1.2328929775297006,-11.089835907393338,-0.20509581724024248,-2.0803296764043293,9.70428696791197,-0.009825556054256574,0.0032481548405866854,0.013089969389957472,-24.708315349186663,58.813953989297026,-78.75
1772309748.7961075,88.88888282546807,1.234649519222566,-11.114795128175345,-0.21168076098804695,-2.0570331708888716,9.668471115463959,0.010908274334452137,2.7030510832173196e-05,0.002181661564992912,-26.522823138923513,59.62196016562508,-77.5625
1772309748.843699,88.88888282546807,1.234649519222566,-11.114795128175345,-0.21168076098804695,-2.0570331708888716,9.668471115463959,0.010908274334452137,2.7030510832173196e-05,0.002181661564992912,-26.522823138923513,59.62196016562508,-77.5625
1772309748.8932598,88.89417865732717,1.2301963342159208,-11.12009096003446,-0.20291120341544164,-1.9812436526115285,9.628841203932192,0.0021843579179736446,-0.001085421331278779,0.003272492347489368,-26.522823138923513,59.62196016562508,-77.5625
1772309748.9812982,88.84346327919516,1.2401031824512738,-11.125670715946743,-0.20711046512488224,-1.9308314421289074,9.682750621478585,-0.012012617023313436,0.005424403605310678,-0.04363323129985824,-24.710328703632058,59.6264514947725,-77.1875
1772309749.0479803,88.83318570681622,1.244126264583496,-11.120904980061828,-0.22244599348247157,-2.061119749984752,9.742501890530875,-0.006580104264753107,0.014164538328288475,-0.031634092692397225,-24.33703346255871,60.314878624534245,-77.5625
1772309749.0879383,88.83318570681622,1.244126264583496,-11.120904980061828,-0.22244599348247157,-2.061119749984752,9.742501890530875,-0.006580104264753107,0.014164538328288475,-0.031634092692397225,-24.33703346255871,60.314878624534245,-77.5625
1772309749.1447146,88.82386772845362,1.2383069328455227,-11.116016238850857,-0.22664335962947146,-2.0475615981676945,9.728284533371072,0.008748243876227448,-0.008704995058895972,-0.003272492347489368,-24.33703346255871,60.314878624534245,-77.5625
1772309749.1850698,88.87501446987523,1.223415393945001,-11.115298770071588,-0.20925829296096224,-2.081975383658546,9.705442594170231,0.002222200633138687,-0.01635700539951177,0.011999138607461015,-23.65046481382349,60.69158108082288,-77.25
1772309749.239431,88.85513479321502,1.2212558855368327,-11.135178446731812,-0.15089875068696776,-2.0880358188588746,9.69024153879325,-0.001069203024779475,-0.008729322518644927,-0.001090830782496456,-23.65046481382349,60.69158108082288,-77.25
1772309749.3167357,88.88151776459621,1.2038993552919175,-11.145031583801243,-0.11206112722242724,-2.0920689707851956,9.716921635027298,0.006550370702837717,-0.0021654365603911234,0.026179938779914945,-23.21203691651574,60.31766634607403,-77.25
1772309749.361769,88.87139415219971,1.2025801271340228,-11.174660338581248,-0.09593319976748842,-2.0330485575489385,9.73645756372116,-0.006561182907170586,0.006528746294171979,-0.015271630954950384,-24.024534421991216,60.31565299162863,-77.5625
1772309749.4171104,88.87139415219971,1.2025801271340228,-11.174660338581248,-0.09593319976748842,-2.0330485575489385,9.73645756372116,-0.006561182907170586,0.006528746294171979,-0.015271630954950384,-24.024534421991216,60.31565299162863,-77.5625
1772309749.4931555,88.95024940277621,1.2104047215009464,-11.16406854847444,-0.1091238308133398,-1.9786211205974018,9.717571877984122,-0.0010908274334452137,-2.7030510832173195e-06,0.014180800172453928,-24.024534421991216,60.31565299162863,-77.5625
1772309749.5543504,88.98760830829679,1.2338340465991218,-11.173755439820903,-0.1179020484253504,-1.9424002693004623,9.705003665093056,0.0010908274334452137,2.7030510832173195e-06,0.022907446432425576,-22.839825789374526,61.44359213263026,-76.75
1772309749.6189811,89.04330447354616,1.2243749890309215,-11.167661460768034,-0.1237438541870276,-1.9182956973757694,9.716710330054104,0.0076547133916990175,-0.007616870676533975,0.019634954084936207,-22.839825789374526,61.44359213263026,-76.75
1772309749.6726096,89.17182299824076,1.2320220985162298,-11.161430303664261,-0.10234875183244065,-1.8970812545703462,9.746399317072422,0.009866101820504835,-0.01961056634226489,0.04581489286485115,-22.839051422280143,61.13109309206276,-74.5
1772309749.753124,89.23760314771569,1.218553356263167,-11.17094275086372,-0.18750144956373918,-1.9213479664907978,9.74616739170653,0.005446028013976417,0.0032859975557517278,0.0272707695624114,-22.15155353303166,61.13279669967041,-75.25
1772309749.8409886,89.31694308011106,1.216092698849676,-11.209461624453041,-0.22352507744844255,-1.927833960721024,9.72068854833518,-0.02071761208220941,-0.00332384027091677,-0.003272492347489368,-21.715758483844816,61.82137870285103,-74.75
1772309749.876192,89.31188224942134,1.2155765094626847,-11.21983938745317,-0.17043672980677957,-1.9821361896358172,9.703732662688877,-0.005486573780224676,0.013076413945926478,-0.009817477042468103,-21.715758483844816,61.82137870285103,-74.75
1772309749.9438918,89.41573117282054,1.2207282770785794,-11.223209492407742,-0.1250717231753208,-2.018248849076411,9.695793821908234,0.0098606957183384,-0.017428911475374464,0.04690572364734761,-20.651558138307696,61.13651366172345,-74.0
1772309749.9977274,89.41573117282054,1.2207282770785794,-11.223209492407742,-0.1250717231753208,-2.018248849076411,9.695793821908234,0.0098606957183384,-0.017428911475374464,0.04690572364734761,-20.651558138307696,61.13651366172345,-74.0
1772309750.0698478,89.41326069421413,1.2452988296711205,-11.228314317270186,-0.0950558891683234,-1.9720342903478596,9.690510612051378,-0.00114488845510956,0.021813845617821057,-0.017453292519943295,-20.651558138307696,61.13651366172345,-74.0
1772309750.0901694,89.52102148453984,1.2608377899947374,-11.232149570938283,-0.0784257883727131,-1.941287306866642,9.787348046128544,-0.001077312178029127,-0.005456840218309286,0.020725784867432664,-19.526561592264724,61.13930138326322,-73.5625
1772309750.1177242,89.4867593704293,1.2524105531725227,-11.25757351798126,-0.06735864206363254,-1.9208255328262023,9.758129148956938,-0.01198828956356448,-0.004393043295696245,-0.02181661564992912,-19.526561592264724,61.13930138326322,-73.5625
1772309750.1686294,89.56649121842828,1.250332819232955,-11.256691605486168,-0.06665062628874115,-1.920605434728498,9.738684299285701,-0.0043714188870305065,0.003261670096002772,0.037088246604879506,-20.65233250540208,61.449012702290936,-72.875
1772309750.2378385,89.56843277306089,1.230647137502901,-11.256571877766921,-0.06617944969960533,-1.920458961903133,9.725743969042696,-0.008723916416478492,-0.0011124518421109521,-0.001090830782496456,-20.65233250540208,61.449012702290936,-72.875
1772309750.2673488,89.56843277306089,1.230647137502901,-11.256571877766921,-0.06617944969960533,-1.920458961903133,9.725743969042696,-0.008723916416478492,-0.0011124518421109521,-0.001090830782496456,-20.65233250540208,61.449012702290936,-72.875
1772309750.3019197,89.55014907348011,1.213911176977527,-11.261603953059495,-0.06921098838013369,-1.9203697749762472,9.733857882355535,-0.0021654365603911234,-0.0065503707028377175,0.006544984694978736,-19.154040718285763,62.14022755359246,-72.75
1772309750.3374739,89.58002066669647,1.2118148353304614,-11.276043418760988,-0.09787320757459958,-1.9672081550111296,9.739257601026878,0.005489276831307894,-0.014167241379371693,0.0272707695624114,-19.154040718285763,62.14022755359246,-72.75
1772309750.3707454,89.5897659408681,1.2127292951467645,-11.2857886929326,-0.12698289858218184,-1.9984034410119147,9.709399936410653,-0.00982014995209014,0.0010664999736962578,-0.002181661564992912,-18.153269421375406,61.83020648772699,-71.25
1772309750.3978102,89.61973665110912,1.2106994450461253,-11.290384142834117,-0.14635507277117277,-2.019163555371259,9.689529994140523,0.006569292060420238,-0.009801228594507619,0.02181661564992912,-18.153269421375406,61.83020648772699,-71.25
1772309750.437069,89.65911499524249,1.214592790193496,-11.289984481126208,-0.1592967729056984,-2.0129085709484658,9.689687216350828,0.0032941067090013795,-0.008718510314312058,0.031634092692397225,-18.403268653829397,61.82958699405149,-71.5625
1772309750.4548216,89.69839259447146,1.2184374234354882,-11.29942670683184,-0.16782643875510034,-2.042196963059959,9.716552739634054,0.008723916416478492,0.0011124518421109521,0.022907446432425576,-18.403268653829397,61.82958699405149,-71.5625
1772309750.4980695,89.69839259447146,1.2184374234354882,-11.29942670683184,-0.16782643875510034,-2.042196963059959,9.716552739634054,0.008723916416478492,0.0011124518421109521,0.022907446432425576,-18.403268653829397,61.82958699405149,-71.5625
1772309750.5244417,89.71303455866679,1.2199018750635957,-11.3096071408097,-0.17366861813899037,-1.9947860320931639,9.707670551612926,0.009822853003173357,-0.0021573274071414713,0.013089969389957472,-18.402339413316135,61.454588145370494,-71.25
1772309750.55772,89.72826172517068,1.2163696228106244,-11.313866835264449,-0.15079571175986248,-1.9631682743320729,9.731865560071281,-0.002170842662557558,-0.004368715835947289,0.030543261909900768,-18.402339413316135,61.454588145370494,-71.25
1772309750.5903811,89.72826172517068,1.2163696228106244,-11.313866835264449,-0.15079571175986248,-1.9631682743320729,9.731865560071281,-0.002170842662557558,-0.004368715835947289,0.030543261909900768,-18.402339413316135,61.454588145370494,-71.25
1772309750.6358283,89.80765657216978,1.2193088718461191,-11.298267402390614,-0.13557404807165865,-1.9421270097355632,9.691100168899933,-0.006550370702837717,0.0021654365603911234,0.011999138607461015,-18.154973028983047,62.51770437697547,-70.875
1772309750.6819053,89.84135017122237,1.227599338756874,-11.323026850965901,-0.1287147004418189,-1.9582384852299963,9.710802820357129,-0.0021681396114743407,-0.005459543269392503,0.002181661564992912,-18.154973028983047,62.51770437697547,-70.875
1772309750.7100155,89.90041793067381,1.2334550187907205,-11.322406385872931,-0.13413545091660967,-1.9890559681243913,9.723914714808856,0.0032941067090013795,-0.008718510314312058,0.026179938779914945,-17.714841524067655,61.45629175297814,-70.875
1772309750.748793,11.648541351899082,-36.51523231365524,135.96371890603527,-0.12770759549219984,-2.009539791430212,9.732640534097023,-0.00980933774775727,-0.003296809760084597,0.025089107997418487,-17.714841524067655,61.45629175297814,-70.875
1772309750.7952108,89.95850992867146,1.2491524392418727,-11.321806197060798,-0.1334652338227376,-2.0231964143274954,9.704996352286315,-0.0021654365603911234,-0.0065503707028377175,0.016362461737446838,-17.028272875332434,61.83299420926677,-69.6875
1772309750.8182943,89.95850992867146,1.2491524392418727,-11.321806197060798,-0.1334652338227376,-2.0231964143274954,9.704996352286315,-0.0021654365603911234,-0.0065503707028377175,0.016362461737446838,-17.028272875332434,61.83299420926677,-69.6875
