timestamp,yaw,pitch,roll,ax,ay,az,gx,gy,gz,mx,my,mz
1772747625.355841,-0.09947368497481598,1.6196808850645785,-7.028789848775153,-0.2674815011302759,-1.2058046403243712,9.752751805925135,-0.001090830782496456,0.002181661564992912,-0.001090830782496456,1.5,63.5625,-87.1875
1772747625.6745782,-0.09947368497481598,1.6196808850645785,-7.028789848775153,-0.26591261459784804,-1.2017107936289115,9.776058955935572,-0.002181661564992912,0.0,0.002181661564992912,1.5,62.6875,-83.5625
1772747625.9792678,-0.09947368497481598,1.6196808850645785,-7.028789848775153,-0.2664976451377848,-1.2074287360541895,9.773150388307261,0.0,-0.001090830782496456,0.0,1.5,63.0,-85.25
1772747626.029896,-0.09947368497481598,1.6196808850645785,-7.028789848775153,-0.2676692219630631,-1.204943740859644,9.778786771640979,0.001090830782496456,0.0,0.0,1.875,63.6875,-84.0625
1772747626.0516436,-0.09947368497481598,1.6196808850645785,-7.028789848775153,-0.26844889325291516,-1.203290004316889,9.7758474983724,0.001090830782496456,-0.001090830782496456,0.001090830782496456,1.875,63.6875,-84.0625
1772747626.115313,-0.09947368497481598,1.6196808850645785,-7.028789848775153,-0.2689677557868127,-1.2055345728284528,9.773891444845995,0.0,0.0,-0.001090830782496456,0.75,63.6875,-84.75
1772747626.1648312,-0.09947368497481598,1.6196808850645785,-7.028789848775153,-0.2693130530070473,-1.2070283080994253,9.772589713074723,-0.002181661564992912,0.001090830782496456,0.002181661564992912,0.75,63.6875,-84.75
1772747626.2367918,-0.09947368497481598,1.6196808850645785,-7.028789848775153,-0.2695428444498907,-1.2046772605288218,9.778413648536876,-0.003272492347489368,-0.001090830782496456,-0.001090830782496456,0.5,63.0,-85.5625
1772747626.2912195,-0.09947368497481598,1.6196808850645785,-7.028789848775153,-0.26969576808816437,-1.2031126646335073,9.77559918911468,0.001090830782496456,0.0,0.0,0.5,63.0,-85.5625
1772747626.327812,-0.09947368497481598,1.6196808850645785,-7.028789848775153,-0.26979753706116655,-1.2020714435428568,9.770381086101459,0.0,-0.003272492347489368,0.0,1.5,63.375,-85.1875
1772747626.344592,5.296512082649224e-06,1.6195946560145724,-7.028416536141485,-0.2677790922117238,-1.2018452364840433,9.76690849683619,0.0010908291385092687,1.8938376269572007e-06,-0.002181661564992912,1.5,63.375,-85.1875
1772747626.362511,5.296512082649224e-06,1.6195946560145724,-7.028416536141485,-0.2677790922117238,-1.2018452364840433,9.76690849683619,0.0010908291385092687,1.8938376269572007e-06,-0.002181661564992912,1.5,63.375,-85.1875
1772747626.3916476,5.296512082649224e-06,1.6195946560145724,-7.028416536141485,-0.26782496370601006,-1.2013841842404975,9.764597527471519,-0.001094616813763183,0.0021797644393915802,0.0,2.1406196347004327,63.00381137343625,-84.875
1772747626.4165194,5.296512082649224e-06,1.6195946560145724,-7.028416536141485,-0.2678554906730394,-1.201077359122709,9.766404714881869,3.7876752539144014e-06,-0.0021816582770185374,0.0,2.1406196347004327,63.00381137343625,-84.875
1772747626.441645,5.296512082649224e-06,1.6195946560145724,-7.028416536141485,-0.2678554906730394,-1.201077359122709,9.766404714881869,3.7876752539144014e-06,-0.0021816582770185374,0.0,2.1406196347004327,63.00381137343625,-84.875
1772747626.4776218,5.296512082649224e-06,1.6195946560145724,-7.028416536141485,-0.26788742120945713,-1.1941829571024551,9.764262266208531,1.8938376269572007e-06,-0.0010908291385092687,0.0,1.7644266019274124,63.6906592838888,-83.25
1772747626.4970028,5.296512082649224e-06,1.6195946560145724,-7.028416536141485,-0.2679086706247557,-1.1895948095734927,9.766181602256463,0.0010908291385092687,1.8938376269572007e-06,0.0,1.7644266019274124,63.6906592838888,-83.25
1772747626.5239356,5.296512082649224e-06,1.6195946560145724,-7.028416536141485,-0.2679170042828312,-1.189886555311848,9.767458898955974,0.0,0.0,0.0,1.7644266019274124,63.6906592838888,-83.25
1772747626.538537,5.296512082649224e-06,1.6195946560145724,-7.028416536141485,-0.2679170042828312,-1.189886555311848,9.767458898955974,0.0,0.0,0.0,1.7644266019274124,63.6906592838888,-83.25
1772747626.5579617,5.296512082649224e-06,1.6195946560145724,-7.028416536141485,-0.26791093505831914,-1.196770922173537,9.76830892564116,0.0,0.0,0.0,0.39062227211920014,63.000773124149234,-84.875
1772747626.5916147,5.296512082649224e-06,1.6195946560145724,-7.028416536141485,-0.26790689605720397,-1.2013523914165742,9.765529497197411,-1.8938376269572007e-06,0.0010908291385092687,0.001090830782496456,0.39062227211920014,63.000773124149234,-84.875
1772747626.6218314,5.296512082649224e-06,1.6195946560145724,-7.028416536141485,-0.26790689605720397,-1.2013523914165742,9.765529497197411,-1.8938376269572007e-06,0.0010908291385092687,0.001090830782496456,0.39062227211920014,63.000773124149234,-84.875
1772747626.6706855,5.296512082649224e-06,1.6195946560145724,-7.028416536141485,-0.27124931481299386,-1.2044071156098846,9.763679818616346,-3.7876752539144014e-06,0.0021816582770185374,0.001090830782496456,2.1406196347004327,63.00381137343625,-84.0
1772747626.699797,5.296512082649224e-06,1.6195946560145724,-7.028416536141485,-0.27347365715770816,-1.2064400004370277,9.769139101597549,0.001085147625628397,0.0032743812531547635,-0.001090830782496456,2.1406196347004327,63.00381137343625,-84.0
1772747626.7395897,5.296512082649224e-06,1.6195946560145724,-7.028416536141485,-0.2749539321405834,-1.20779286258068,9.772772193437353,0.0010870414632553544,0.0021835521146454945,-0.002181661564992912,-0.04633452401056938,62.687514032795114,-84.5
1772747626.760114,5.296512082649224e-06,1.6195946560145724,-7.028416536141485,-0.27259393194001846,-1.2086873696343858,9.76849975205781,3.7876752539144014e-06,-0.0021816582770185374,0.001090830782496456,-0.04633452401056938,62.687514032795114,-84.5
1772747626.8051531,5.296512082649224e-06,1.6195946560145724,-7.028416536141485,-0.26767827150355855,-1.2092768464958947,9.765656490046021,0.0010870414632553544,0.0021835521146454945,0.001090830782496456,0.39062227211920014,63.000773124149234,-84.5
1772747626.8224258,5.296512082649224e-06,1.6195946560145724,-7.028416536141485,-0.2644127619850538,-1.2063240300964273,9.763764330938493,1.8938376269572007e-06,-0.0010908291385092687,0.0,0.39062227211920014,63.000773124149234,-84.5
1772747626.847759,5.296512082649224e-06,1.6195946560145724,-7.028416536141485,-0.2644127619850538,-1.2063240300964273,9.763764330938493,1.8938376269572007e-06,-0.0010908291385092687,0.0,0.39062227211920014,63.000773124149234,-84.5
1772747626.9316316,5.296512082649224e-06,1.6195946560145724,-7.028416536141485,-0.2622337942881861,-1.2077040704336157,9.765850231896554,-0.0010889353008823115,-0.0010927229761362259,0.0,1.7656201998615972,63.00316032001761,-84.875
1772747627.0016296,5.296512082649224e-06,1.6195946560145724,-7.028416536141485,-0.25647359780981566,-1.2092278501628626,9.76816216986647,-0.0010908291385092687,-1.8938376269572007e-06,-0.001090830782496456,1.76692230669889,62.25316145033993,-83.5625
1772747627.0408995,5.296512082649224e-06,1.6195946560145724,-7.028416536141485,-0.25360526254992655,-1.2096307226595988,9.768776944576043,-0.0010965106513901404,0.0032705935779008487,-0.002181661564992912,1.0774701825717523,63.37696615692226,-86.5
1772747627.115584,5.296512082649224e-06,1.6195946560145724,-7.028416536141485,-0.26173754506404906,-1.206571145911185,9.7725311819851,-0.0010965106513901404,0.0032705935779008487,0.001090830782496456,1.0774701825717523,63.37696615692226,-86.5
1772747627.1629934,5.296512082649224e-06,1.6195946560145724,-7.028416536141485,-0.26714948823364965,-1.2045350317628274,9.781719808457886,0.0010889353008823115,0.0010927229761362259,0.001090830782496456,1.0762765846375675,64.06446512079346,-84.875
1772747627.2043114,5.296512082649224e-06,1.6195946560145724,-7.028416536141485,-0.2707510759576524,-1.2031800205419807,9.787834736731844,3.7876752539144014e-06,-0.0021816582770185374,0.0,1.0762765846375675,64.06446512079346,-84.875
1772747627.2260807,5.296512082649224e-06,1.6195946560145724,-7.028416536141485,-0.2707510759576524,-1.2031800205419807,9.787834736731844,3.7876752539144014e-06,-0.0021816582770185374,0.0,1.0762765846375675,64.06446512079346,-84.875
1772747627.2635083,5.296512082649224e-06,1.6195946560145724,-7.028416536141485,-0.27474294689424933,-1.2016781745990892,9.777898565840855,-0.0010927229761362259,0.0010889353008823113,-0.002181661564992912,1.389427167088577,63.690008230470156,-84.75
1772747627.3156238,5.296512082649224e-06,1.6195946560145724,-7.028416536141485,-0.27474294689424933,-1.2016781745990892,9.777898565840855,-0.0010927229761362259,0.0010889353008823113,-0.002181661564992912,1.389427167088577,63.690008230470156,-84.75
1772747627.3467994,5.296512082649224e-06,1.6195946560145724,-7.028416536141485,-0.27650117578271965,-1.2065842817883945,9.773498080363078,0.0010889353008823115,0.0010927229761362259,-0.001090830782496456,1.3911633095383003,62.6900097375666,-83.5625
1772747627.3914168,5.296512082649224e-06,1.6195946560145724,-7.028416536141485,-0.27696871196592954,-1.2078888802082863,9.77232793340551,1.8938376269572007e-06,-0.0010908291385092687,0.001090830782496456,1.7644266019274124,63.6906592838888,-86.0625
1772747627.4367483,5.296512082649224e-06,1.6195946560145724,-7.028416536141485,-0.2772798520731344,-1.208757075883405,9.778239437091285,0.001094616813763183,-0.0021797644393915802,0.0,1.7644266019274124,63.6906592838888,-86.0625
1772747627.4575891,5.296512082649224e-06,1.6195946560145724,-7.028416536141485,-0.2772798520731344,-1.208757075883405,9.778239437091285,0.001094616813763183,-0.0021797644393915802,0.0,1.7644266019274124,63.6906592838888,-86.0625
1772747627.4940948,5.296512082649224e-06,1.6195946560145724,-7.028416536141485,-0.27748691233881645,-1.2093348504068153,9.782173476758347,-0.002177870601764623,-0.0021854459522724517,0.002181661564992912,1.7644266019274124,63.6906592838888,-86.0625
1772747627.5393271,5.296512082649224e-06,1.6195946560145724,-7.028416536141485,-0.27748691233881645,-1.2093348504068153,9.782173476758347,-0.002177870601764623,-0.0021854459522724517,0.002181661564992912,1.7644266019274124,63.6906592838888,-86.0625
1772747627.5706522,5.296512082649224e-06,1.6195946560145724,-7.028416536141485,-0.2721509803324946,-1.2066204558677704,9.769820086986973,1.8938376269572007e-06,-0.0010908291385092687,-0.001090830782496456,1.3911633095383003,62.6900097375666,-85.6875
1772747627.6299212,5.296512082649224e-06,1.6195946560145724,-7.028416536141485,-0.27073440641319274,-1.2045620393976724,9.769880269899591,1.8938376269572007e-06,-0.0010908291385092687,0.001090830782496456,2.1406196347004327,63.00381137343625,-84.5
1772747627.6454456,5.296512082649224e-06,1.6195946560145724,-7.028416536141485,-0.27073440641319274,-1.2045620393976724,9.769880269899591,1.8938376269572007e-06,-0.0010908291385092687,0.001090830782496456,2.1406196347004327,63.00381137343625,-84.5
1772747627.666699,5.296512082649224e-06,1.6195946560145724,-7.028416536141485,-0.2697916922940649,-1.2031921862308408,9.76992032095565,-3.7876752539144014e-06,0.0021816582770185374,-0.002181661564992912,2.1406196347004327,63.00381137343625,-84.5
1772747627.6914368,5.296512082649224e-06,1.6195946560145724,-7.028416536141485,-0.2697916922940649,-1.2031921862308408,9.76992032095565,-3.7876752539144014e-06,0.0021816582770185374,-0.002181661564992912,2.1406196347004327,63.00381137343625,-84.5
1772747627.710227,5.296512082649224e-06,1.6195946560145724,-7.028416536141485,-0.26581921991267865,-1.2022747566601428,9.769946974486059,-0.0021816582770185374,-3.7876752539144014e-06,0.002181661564992912,1.7661627443771357,62.69066079098524,-84.0625
1772747627.7481964,5.296512082649224e-06,1.6195946560145724,-7.028416536141485,-0.2631755839182901,-1.201664217529203,9.766619600405486,-0.0010908291385092687,-1.8938376269572007e-06,-0.001090830782496456,1.7661627443771357,62.69066079098524,-84.0625
1772747627.7927148,5.296512082649224e-06,1.6195946560145724,-7.028416536141485,-0.2614162736953736,-1.2012579105577315,9.764405270124069,-0.0010889353008823115,-0.0010927229761362259,-0.001090830782496456,1.0769276380562138,63.689465685954616,-85.25
1772747627.829087,5.296512082649224e-06,1.6195946560145724,-7.028416536141485,-0.2614162736953736,-1.2012579105577315,9.764405270124069,-0.0010889353008823115,-0.0010927229761362259,-0.001090830782496456,1.0769276380562138,63.689465685954616,-85.25
1772747627.8496082,5.296512082649224e-06,1.6195946560145724,-7.028416536141485,-0.26359057906071903,-1.200993325397398,9.766276769764795,-0.0010908291385092687,-1.8938376269572007e-06,0.0,1.0769276380562138,63.689465685954616,-85.25
1772747627.8664858,5.296512082649224e-06,1.6195946560145724,-7.028416536141485,-0.26359057906071903,-1.200993325397398,9.766276769764795,-0.0010908291385092687,-1.8938376269572007e-06,0.0,1.0769276380562138,63.689465685954616,-85.25
1772747627.8983412,5.296512082649224e-06,1.6195946560145724,-7.028416536141485,-0.26838266165868746,-1.2008230545192398,9.767522231869679,0.0010927229761362259,-0.0010889353008823113,-0.001090830782496456,1.0769276380562138,63.689465685954616,-85.5625
1772747627.9140959,5.296512082649224e-06,1.6195946560145724,-7.028416536141485,-0.2715659315061312,-1.2040548478177893,9.768351072987755,0.0010908291385092687,1.8938376269572007e-06,0.0,1.0769276380562138,63.689465685954616,-85.5625
1772747627.9298563,5.296512082649224e-06,1.6195946560145724,-7.028416536141485,-0.2715659315061312,-1.2040548478177893,9.768351072987755,0.0010908291385092687,1.8938376269572007e-06,0.0,1.0769276380562138,63.689465685954616,-85.5625
1772747627.9522855,5.296512082649224e-06,1.6195946560145724,-7.028416536141485,-0.27369016962058496,-1.202860463490564,9.768902657493072,-0.0010889353008823115,-0.0010927229761362259,-0.001090830782496456,1.7649691464429509,63.37815975485644,-84.875
1772747628.0055447,5.296512082649224e-06,1.6195946560145724,-7.028416536141485,-0.26840780543419834,-1.2053991055479878,9.769269730819758,-0.0010984044890170975,0.004361422716410117,0.001090830782496456,1.7649691464429509,63.37815975485644,-84.875
1772747628.0584385,5.296512082649224e-06,1.6195946560145724,-7.028416536141485,-0.26489825866646655,-1.2037434368128,9.772859125725509,0.001085147625628397,0.0032743812531547635,-0.004363323129985824,1.0781212359903987,63.00196672208342,-84.5
1772747628.0836942,5.296512082649224e-06,1.6195946560145724,-7.028416536141485,-0.26489825866646655,-1.2037434368128,9.772859125725509,0.001085147625628397,0.0032743812531547635,-0.004363323129985824,1.0781212359903987,63.00196672208342,-84.5
1772747628.1222503,5.296512082649224e-06,1.6195946560145724,-7.028416536141485,-0.2659019935722265,-1.2059925220209116,9.775247827939118,0.0010965106513901404,-0.0032705935779008487,0.0,1.0781212359903987,63.00196672208342,-84.5
1772747628.1350381,5.296512082649224e-06,1.6195946560145724,-7.028416536141485,-0.2659019935722265,-1.2059925220209116,9.775247827939118,0.0010965106513901404,-0.0032705935779008487,0.0,1.0781212359903987,63.00196672208342,-84.5
1772747628.1507301,5.296512082649224e-06,1.6195946560145724,-7.028416536141485,-0.26657577552999034,-1.2041441564370685,9.776837482578724,1.8938376269572007e-06,-0.0010908291385092687,0.0,4.945589448637846,-1984.619404765056,-84.5
1772747628.2114012,5.296512082649224e-06,1.6195946560145724,-7.028416536141485,-0.2670241698962445,-1.2029140897886175,9.777895379983775,1.8938376269572007e-06,-0.0010908291385092687,0.0,4.945589448637846,-1984.619404765056,-84.5
1772747628.241413,5.296512082649224e-06,1.6195946560145724,-7.028416536141485,-0.26732257133809345,-1.202095494174818,9.778599398889348,0.0010908291385092687,1.8938376269572007e-06,-0.001090830782496456,1.3911633095383003,62.6900097375666,-84.875
1772747628.2744174,5.296512082649224e-06,1.6195946560145724,-7.028416536141485,-0.26732257133809345,-1.202095494174818,9.778599398889348,0.0010908291385092687,1.8938376269572007e-06,-0.001090830782496456,1.3911633095383003,62.6900097375666,-84.875
1772747628.3277473,5.296512082649224e-06,1.6195946560145724,-7.028416536141485,-0.26417604749836787,-1.2015449203477127,9.7790679156066,1.8938376269572007e-06,-0.0010908291385092687,0.002181661564992912,1.3911633095383003,62.6900097375666,-84.875
1772747628.3682578,5.296512082649224e-06,1.6195946560145724,-7.028416536141485,-0.26542717769791835,-1.2011843272065206,9.776034596540937,1.8938376269572007e-06,-0.0010908291385092687,-0.001090830782496456,1.3906207650227618,63.002509266598956,-84.875
1772747628.4220974,5.296512082649224e-06,1.6195946560145724,-7.028416536141485,-0.2629146842037657,-1.2009385489087125,9.774015956587133,1.8938376269572007e-06,-0.0010908291385092687,0.003272492347489368,1.3906207650227618,63.002509266598956,-84.875
1772747628.452811,5.296512082649224e-06,1.6195946560145724,-7.028416536141485,-0.2679328611816253,-1.2007866013779132,9.772672574247563,1.8938376269572007e-06,-0.0010908291385092687,0.002181661564992912,1.3899697116041154,63.37750870143779,-83.5625
1772747628.4914196,5.296512082649224e-06,1.6195946560145724,-7.028416536141485,-0.2679214876473334,-1.2040247810690106,9.771778568307143,1.8938376269572007e-06,-0.0010908291385092687,0.001090830782496456,1.3899697116041154,63.37750870143779,-83.5625
1772747628.534531,5.296512082649224e-06,1.6195946560145724,-7.028416536141485,-0.26791391868731285,-1.2061797534805987,9.771183617340494,-0.001094616813763183,0.0021797644393915802,0.001090830782496456,1.0774701825717523,63.37696615692226,-85.5625
1772747628.5523973,5.296512082649224e-06,1.6195946560145724,-7.028416536141485,-0.2645637749630566,-1.2076080559574571,9.770787684118227,0.0010870414632553544,0.0021835521146454945,0.0,1.0774701825717523,63.37696615692226,-85.5625
1772747628.5835462,5.296512082649224e-06,1.6195946560145724,-7.028416536141485,-0.2645637749630566,-1.2076080559574571,9.770787684118227,0.0010870414632553544,0.0021835521146454945,0.0,1.0774701825717523,63.37696615692226,-85.5625
1772747628.6164982,5.296512082649224e-06,1.6195946560145724,-7.028416536141485,-0.2623400993285556,-1.2052134686347087,9.770524194981672,0.0010965106513901404,-0.0032705935779008487,0.001090830782496456,1.3906207650227618,63.002509266598956,-84.5
1772747628.6400158,5.296512082649224e-06,1.6195946560145724,-7.028416536141485,-0.2642111822902273,-1.2002805984452336,9.77034884590466,-0.0010908291385092687,-1.8938376269572007e-06,0.0,1.3906207650227618,63.002509266598956,-84.5
1772747628.6660337,5.296512082649224e-06,1.6195946560145724,-7.028416536141485,-0.2654563670998536,-1.1969978284379084,9.770232153052687,1.8938376269572007e-06,-0.0010908291385092687,0.0,1.3906207650227618,63.002509266598956,-84.5
1772747628.6853764,5.296512082649224e-06,1.6195946560145724,-7.028416536141485,-0.2654563670998536,-1.1969978284379084,9.770232153052687,1.8938376269572007e-06,-0.0010908291385092687,0.0,1.3906207650227618,63.002509266598956,-84.5
1772747628.7053273,5.296512082649224e-06,1.6195946560145724,-7.028416536141485,-0.2654563670998536,-1.1969978284379084,9.770232153052687,1.8938376269572007e-06,-0.0010908291385092687,0.0,1.3906207650227618,63.002509266598956,-84.5
1772747628.737013,5.296512082649224e-06,1.6195946560145724,-7.028416536141485,-0.26628502368103424,-1.1948131816689773,9.766809383555925,-1.8938376269572007e-06,0.0010908291385092687,0.0,1.0781212359903987,63.00196672208342,-84.0625
1772747628.7534883,5.296512082649224e-06,1.6195946560145724,-7.028416536141485,-0.27018159204502273,-1.1933651312387914,9.76453156869067,0.0010927229761362259,-0.0010889353008823113,0.001090830782496456,1.0781212359903987,63.00196672208342,-84.0625
1772747628.7685559,5.296512082649224e-06,1.6195946560145724,-7.028416536141485,-0.2694238005073889,-1.1957407689287651,9.763015708342701,-0.0010927229761362259,0.0010889353008823113,0.0,1.0781212359903987,63.00196672208342,-84.0625
1772747628.8205695,5.296512082649224e-06,1.6195946560145724,-7.028416536141485,-0.2689136911137456,-1.200666835939744,9.765352031921717,-0.0021797644393915802,-0.001094616813763183,-0.002181661564992912,1.3906207650227618,63.002509266598956,-84.5
1772747628.8384125,5.296512082649224e-06,1.6195946560145724,-7.028416536141485,-0.2652291123446578,-1.2039392709173424,9.766906829165109,-0.0010908291385092687,-1.8938376269572007e-06,0.0,1.3906207650227618,63.002509266598956,-84.5
1772747628.868447,5.296512082649224e-06,1.6195946560145724,-7.028416536141485,-0.2652291123446578,-1.2039392709173424,9.766906829165109,-0.0010908291385092687,-1.8938376269572007e-06,0.0,1.3906207650227618,63.002509266598956,-84.5
1772747628.8852892,5.296512082649224e-06,1.6195946560145724,-7.028416536141485,-0.2627828739237057,-1.202771933173527,9.767941529362362,1.8938376269572007e-06,-0.0010908291385092687,0.0,1.3906207650227618,63.002509266598956,-84.5
1772747628.9094594,5.296512082649224e-06,1.6195946560145724,-7.028416536141485,-0.2627828739237057,-1.202771933173527,9.767941529362362,1.8938376269572007e-06,-0.0010908291385092687,0.0,1.3906207650227618,63.002509266598956,-84.5
1772747628.9332075,5.296512082649224e-06,1.6195946560145724,-7.028416536141485,-0.2645000362467492,-1.2020008905354687,9.768630110785276,-1.8938376269572007e-06,0.0010908291385092687,0.0,0.6406218953450906,63.00120715976166,-84.875
1772747628.9635937,5.296512082649224e-06,1.6195946560145724,-7.028416536141485,-0.2656427885907746,-1.2014877702729516,9.769088354030266,-0.0010908291385092687,-1.8938376269572007e-06,0.0,0.6406218953450906,63.00120715976166,-84.875
1772747628.9922376,5.296512082649224e-06,1.6195946560145724,-7.028416536141485,-0.2656427885907746,-1.2014877702729516,9.769088354030266,-0.0010908291385092687,-1.8938376269572007e-06,0.0,0.6406218953450906,63.00120715976166,-84.875
1772747629.0115302,5.296512082649224e-06,1.6195946560145724,-7.028416536141485,-0.2664032775103435,-1.2011462944701754,9.762703086376256,1.8938376269572007e-06,-0.0010908291385092687,0.0,0.6399708419264443,63.376206594600504,-84.875
1772747629.0406845,5.296512082649224e-06,1.6195946560145724,-7.028416536141485,-0.2669093743910987,-1.2009190461379624,9.765143985495264,0.0,0.0,-0.001090830782496456,0.6399708419264443,63.376206594600504,-84.875
1772747629.0742693,5.296512082649224e-06,1.6195946560145724,-7.028416536141485,-0.27058547528724797,-1.2041187291677524,9.760078153177696,1.8938376269572007e-06,-0.0010908291385092687,-0.001090830782496456,0.6399708419264443,63.376206594600504,-84.875
1772747629.1134434,5.296512082649224e-06,1.6195946560145724,-7.028416536141485,-0.27303187936889767,-1.2062480824812765,9.763397121774048,0.0,0.0,-0.001090830782496456,0.6399708419264443,63.376206594600504,-84.875
1772747629.1365488,5.296512082649224e-06,1.6195946560145724,-7.028416536141485,-0.2746599339571113,-1.2076651433249916,9.76895097000693,0.0,0.0,-0.001090830782496456,0.6399708419264443,63.376206594600504,-84.875
1772747629.1515384,5.296512082649224e-06,1.6195946560145724,-7.028416536141485,-0.27240989461396087,-1.2019121605646161,9.772646993965363,0.0010908291385092687,1.8938376269572007e-06,0.001090830782496456,0.6399708419264443,63.376206594600504,-84.875
1772747629.1802685,5.296512082649224e-06,1.6195946560145724,-7.028416536141485,-0.27240989461396087,-1.2019121605646161,9.772646993965363,0.0010908291385092687,1.8938376269572007e-06,0.001090830782496456,0.6399708419264443,63.376206594600504,-84.875
1772747629.2055252,5.296512082649224e-06,1.6195946560145724,-7.028416536141485,-0.2709125185656807,-1.1980836148026144,9.775106656622409,0.0,0.0,0.0,1.3899697116041154,63.37750870143779,-85.25
1772747629.2217693,5.296512082649224e-06,1.6195946560145724,-7.028416536141485,-0.2665651172759891,-1.1988750594411401,9.783433758059079,0.0,0.0,0.0,1.3899697116041154,63.37750870143779,-85.25
1772747629.2376316,5.296512082649224e-06,1.6195946560145724,-7.028416536141485,-0.2665651172759891,-1.1988750594411401,9.783433758059079,0.0,0.0,0.0,1.3899697116041154,63.37750870143779,-85.25
1772747629.262757,5.296512082649224e-06,1.6195946560145724,-7.028416536141485,-0.2636719702813537,-1.1994017570070632,9.788975351045366,-0.0010908291385092687,-1.8938376269572007e-06,0.0,1.3899697116041154,63.37750870143779,-85.25
1772747629.2830226,5.296512082649224e-06,1.6195946560145724,-7.028416536141485,-0.2650859123504728,-1.203103182609935,9.78262788415213,0.0010908291385092687,1.8938376269572007e-06,-0.001090830782496456,1.0769276380562138,63.689465685954616,-84.875
1772747629.3094397,5.296512082649224e-06,1.6195946560145724,-7.028416536141485,-0.2660268750027036,-1.205566440001013,9.778403715840534,-0.0010908291385092687,-1.8938376269572007e-06,0.0,1.0769276380562138,63.689465685954616,-84.875
1772747629.3341756,5.296512082649224e-06,1.6195946560145724,-7.028416536141485,-0.26665307513652176,-1.2072057102783875,9.778937690723538,-0.0010927229761362259,0.0010889353008823113,-0.001090830782496456,1.0769276380562138,63.689465685954616,-84.875
1772747629.3527527,5.296512082649224e-06,1.6195946560145724,-7.028416536141485,-0.26665307513652176,-1.2072057102783875,9.778937690723538,-0.0010927229761362259,0.0010889353008823113,-0.001090830782496456,1.0769276380562138,63.689465685954616,-84.875
1772747629.4031336,5.296512082649224e-06,1.6195946560145724,-7.028416536141485,-0.26706980433046384,-1.2082966263361317,9.779293045043286,1.8938376269572007e-06,-0.0010908291385092687,-0.001090830782496456,0.6394282974109057,63.68870612363286,-84.0625
1772747629.4285133,5.296512082649224e-06,1.6195946560145724,-7.028416536141485,-0.2673413253634281,-1.2123677254521428,9.776184417666192,-0.0010889353008823115,-0.0010927229761362259,-0.002181661564992912,0.6394282974109057,63.68870612363286,-84.0625
1772747629.442862,5.296512082649224e-06,1.6195946560145724,-7.028416536141485,-0.2673413253634281,-1.2123677254521428,9.776184417666192,-0.0010889353008823115,-0.0010927229761362259,-0.002181661564992912,0.6394282974109057,63.68870612363286,-84.0625
1772747629.4608524,5.296512082649224e-06,1.6195946560145724,-7.028416536141485,-0.26417691291186357,-1.215071188846257,9.770770549165059,-0.0010889353008823115,-0.0010927229761362259,0.001090830782496456,2.453119163732796,63.00435391795179,-85.5625
1772747629.4889421,5.296512082649224e-06,1.6195946560145724,-7.028416536141485,-0.2654219460304983,-1.2135310144598959,9.76716768015443,0.0021854459522724517,-0.0021778706017646227,0.0,2.453119163732796,63.00435391795179,-85.5625
1772747629.50286,5.296512082649224e-06,1.6195946560145724,-7.028416536141485,-0.2654219460304983,-1.2135310144598959,9.76716768015443,0.0021854459522724517,-0.0021778706017646227,0.0,2.453119163732796,63.00435391795179,-85.5625
1772747629.520049,5.296512082649224e-06,1.6195946560145724,-7.028416536141485,-0.26291120258753914,-1.2091551313543,9.771460234489178,-0.0010832537880014399,-0.0043652103916640315,0.001090830782496456,2.453119163732796,63.00435391795179,-85.5625
1772747629.5359147,5.296512082649224e-06,1.6195946560145724,-7.028416536141485,-0.26291120258753914,-1.2091551313543,9.771460234489178,-0.0010832537880014399,-0.0043652103916640315,0.001090830782496456,2.453119163732796,63.00435391795179,-85.5625
1772747629.572663,5.296512082649224e-06,1.6195946560145724,-7.028416536141485,-0.26458543753900526,-1.2062488376197775,9.774316881447978,0.001094616813763183,-0.0021797644393915802,-0.002181661564992912,1.0774701825717523,63.37696615692226,-84.5
1772747629.6079426,5.296512082649224e-06,1.6195946560145724,-7.028416536141485,-0.26978620630617794,-1.2030334132477813,9.770792863286362,3.7876752539144014e-06,-0.0021816582770185374,0.0,0.6406218953450906,63.00120715976166,-84.0625
1772747629.6295848,5.296512082649224e-06,1.6195946560145724,-7.028416536141485,-0.26978620630617794,-1.2030334132477813,9.770792863286362,3.7876752539144014e-06,-0.0021816582770185374,0.0,0.6406218953450906,63.00120715976166,-84.0625
1772747629.6480696,5.296512082649224e-06,1.6195946560145724,-7.028416536141485,-0.27250578238084916,-1.2021807101943953,9.76718252995289,-1.8938376269572007e-06,0.0010908291385092687,0.001090830782496456,0.6406218953450906,63.00120715976166,-84.0625
1772747629.6705823,5.296512082649224e-06,1.6195946560145724,-7.028416536141485,-0.27250578238084916,-1.2021807101943953,9.76718252995289,-1.8938376269572007e-06,0.0010908291385092687,0.001090830782496456,0.6406218953450906,63.00120715976166,-84.0625
1772747629.712428,5.296512082649224e-06,1.6195946560145724,-7.028416536141485,-0.27095890803210587,-1.2082976515790769,9.76812500515685,-0.0021835521146454945,0.0010870414632553542,-0.001090830782496456,1.0794233428276914,62.25196785240575,-84.5
1772747629.7500353,5.296512082649224e-06,1.6195946560145724,-7.028416536141485,-0.263239267100909,-1.2123567925590018,9.772097323584267,-1.8938376269572007e-06,0.0010908291385092687,-0.002181661564992912,1.0794233428276914,62.25196785240575,-84.5
1772747629.7862232,5.296512082649224e-06,1.6195946560145724,-7.028416536141485,-0.26478633803662976,-1.2184148273843478,9.77474085712401,-1.8938376269572007e-06,0.0010908291385092687,0.0,2.1394260367662477,63.69131033730745,-84.875
1772747629.805783,5.296512082649224e-06,1.6195946560145724,-7.028416536141485,-0.2658275116433055,-1.2157561685561054,9.776500099164505,-1.8938376269572007e-06,0.0010908291385092687,-0.001090830782496456,2.1394260367662477,63.69131033730745,-84.875
1772747629.8208039,5.296512082649224e-06,1.6195946560145724,-7.028416536141485,-0.26986550771379036,-1.2139926683955093,9.777670855090431,0.0,0.0,0.003272492347489368,2.1394260367662477,63.69131033730745,-84.875
1772747629.835722,5.296512082649224e-06,1.6195946560145724,-7.028416536141485,-0.26986550771379036,-1.2139926683955093,9.777670855090431,0.0,0.0,0.003272492347489368,2.1394260367662477,63.69131033730745,-84.875
1772747629.8656034,5.296512082649224e-06,1.6195946560145724,-7.028416536141485,-0.2676508647112477,-1.2120264527502815,9.768933143936762,-0.0010927229761362259,0.0010889353008823113,-0.001090830782496456,2.4524681103141495,63.37935335279062,-84.875
1772747629.9159212,5.296512082649224e-06,1.6195946560145724,-7.028416536141485,-0.2676508647112477,-1.2120264527502815,9.768933143936762,-0.0010927229761362259,0.0010889353008823113,-0.001090830782496456,2.4524681103141495,63.37935335279062,-84.875
1772747629.9482145,5.296512082649224e-06,1.6195946560145724,-7.028416536141485,-0.26438871548049064,-1.211498969009521,9.769290019207478,-0.001094616813763183,0.0021797644393915802,-0.001090830782496456,2.4524681103141495,63.37935335279062,-83.25
1772747629.9622629,5.296512082649224e-06,1.6195946560145724,-7.028416536141485,-0.26556289827392987,-1.2111537420628582,9.769527515713582,1.8938376269572007e-06,-0.0010908291385092687,-0.002181661564992912,2.4524681103141495,63.37935335279062,-83.25
1772747630.028212,5.296512082649224e-06,1.6195946560145724,-7.028416536141485,-0.26969521806283003,-1.2075846983108127,9.769685566985384,-1.8938376269572007e-06,0.0010908291385092687,-0.001090830782496456,1.3911633095383003,62.6900097375666,-84.875
1772747630.0830038,5.296512082649224e-06,1.6195946560145724,-7.028416536141485,-0.2724452307213065,-1.2052095395626574,9.76979074834122,0.0010908291385092687,1.8938376269572007e-06,-0.001090830782496456,1.3911633095383003,62.6900097375666,-84.875
1772747630.120153,5.296512082649224e-06,1.6195946560145724,-7.028416536141485,-0.2742869486067365,-1.1969386846161947,9.766515633651258,0.0,0.0,0.0,1.0781212359903987,63.00196672208342,-83.5625
1772747630.1700804,5.296512082649224e-06,1.6195946560145724,-7.028416536141485,-0.27216748462024004,-1.191428715450393,9.774371416532473,0.0,0.0,0.0,1.0781212359903987,63.00196672208342,-83.5625
1772747630.1970458,5.296512082649224e-06,1.6195946560145724,-7.028416536141485,-0.2674118983472772,-1.1877560849305067,9.779599352285077,-0.001085147625628397,-0.0032743812531547635,0.002181661564992912,1.7656201998615972,63.00316032001761,-84.5
1772747630.2203612,5.296512082649224e-06,1.6195946560145724,-7.028416536141485,-0.26424710880599994,-1.1853119903454934,9.783078485128566,0.0,0.0,0.002181661564992912,1.7656201998615972,63.00316032001761,-84.5
1772747630.2394643,5.296512082649224e-06,1.6195946560145724,-7.028416536141485,-0.26214097671929554,-1.1836854727014923,9.785393809171449,0.0010870414632553544,0.0021835521146454945,0.0,1.7656201998615972,63.00316032001761,-84.5
1772747630.2708528,5.296512082649224e-06,1.6195946560145724,-7.028416536141485,-0.26214097671929554,-1.1836854727014923,9.785393809171449,0.0010870414632553544,0.0021835521146454945,0.0,1.7656201998615972,63.00316032001761,-84.5
1772747630.2923107,5.296512082649224e-06,1.6195946560145724,-7.028416536141485,-0.2640844760085441,-1.1826088509692365,9.780244408043483,-0.0010927229761362259,0.0010889353008823113,-0.001090830782496456,1.7661627443771357,62.69066079098524,-83.5625
1772747630.3088236,5.296512082649224e-06,1.6195946560145724,-7.028416536141485,-0.2653662378943612,-1.1885825845648998,9.783507762530041,-1.8938376269572007e-06,0.0010908291385092687,-0.004363323129985824,1.7661627443771357,62.69066079098524,-83.5625
1772747630.3401175,5.296512082649224e-06,1.6195946560145724,-7.028416536141485,-0.26621923611115406,-1.192558037541837,9.778989265072148,-0.0010927229761362259,0.0010889353008823113,-0.001090830782496456,1.7661627443771357,62.69066079098524,-83.5625
1772747630.3687108,5.296512082649224e-06,1.6195946560145724,-7.028416536141485,-0.2667694741245128,-1.2052389770870096,9.775982255488843,0.001094616813763183,-0.0021797644393915802,0.002181661564992912,1.7649691464429509,63.37815975485644,-83.25
1772747630.4218154,5.296512082649224e-06,1.6195946560145724,-7.028416536141485,-0.2638079674812307,-1.2036368731107712,9.773981124201653,0.0010870414632553544,0.0021835521146454945,-0.001090830782496456,1.7649691464429509,63.37815975485644,-83.25
1772747630.4516742,5.296512082649224e-06,1.6195946560145724,-7.028416536141485,-0.2638079674812307,-1.2036368731107712,9.773981124201653,0.0010870414632553544,0.0021835521146454945,-0.001090830782496456,1.7649691464429509,63.37815975485644,-83.25
1772747630.4883692,5.296512082649224e-06,1.6195946560145724,-7.028416536141485,-0.2627478057390545,-1.2040911544064037,9.768418030193802,-3.7876752539144014e-06,0.0021816582770185374,0.002181661564992912,1.0781212359903987,63.00196672208342,-84.5
1772747630.514557,5.296512082649224e-06,1.6195946560145724,-7.028416536141485,-0.26447089117116696,-1.2062239241951949,9.765602105058417,0.0010889353008823115,0.0010927229761362259,-0.002181661564992912,1.0781212359903987,63.00196672208342,-84.5
1772747630.534904,5.296512082649224e-06,1.6195946560145724,-7.028416536141485,-0.26897430712489406,-1.200958852923643,9.763728138336763,-0.0010870414632553544,-0.0021835521146454945,0.001090830782496456,1.0769276380562138,63.689465685954616,-84.875
1772747630.561162,5.296512082649224e-06,1.6195946560145724,-7.028416536141485,-0.27196547254521286,-1.2008001134730388,9.7658261461244,1.8938376269572007e-06,-0.0010908291385092687,-0.002181661564992912,1.0769276380562138,63.689465685954616,-84.875
1772747630.5885713,5.296512082649224e-06,1.6195946560145724,-7.028416536141485,-0.27395605971892795,-1.2006944741418972,9.76722234687079,-0.0010870414632553544,-0.0021835521146454945,0.0,1.0774701825717523,63.37696615692226,-84.5
1772747630.656836,5.296512082649224e-06,1.6195946560145724,-7.028416536141485,-0.2752807732467197,-1.2006241723470912,9.774841726285569,-0.0010889353008823115,-0.0010927229761362259,0.001090830782496456,1.0774701825717523,63.37696615692226,-84.5
1772747630.6771598,5.296512082649224e-06,1.6195946560145724,-7.028416536141485,-0.27282305622596603,-1.1972264730316229,9.779912338172059,-0.0010889353008823115,-0.0010927229761362259,0.002181661564992912,1.0781212359903987,63.00196672208342,-84.5
1772747630.7113414,5.296512082649224e-06,1.6195946560145724,-7.028416536141485,-0.27282305622596603,-1.1972264730316229,9.779912338172059,-0.0010889353008823115,-0.0010927229761362259,0.002181661564992912,1.0781212359903987,63.00196672208342,-84.5
1772747630.7510364,5.296512082649224e-06,1.6195946560145724,-7.028416536141485,-0.2711874730031525,-1.1949653420919668,9.776596550325433,3.7876752539144014e-06,-0.0021816582770185374,0.001090830782496456,1.0781212359903987,63.00196672208342,-84.5
1772747630.7739234,5.296512082649224e-06,1.6195946560145724,-7.028416536141485,-0.2700873954581635,-1.2001507980419404,9.77438993055328,0.001094616813763183,-0.0021797644393915802,0.0,1.0769276380562138,63.689465685954616,-84.875
1772747630.8022342,5.296512082649224e-06,1.6195946560145724,-7.028416536141485,-0.26935530614064473,-1.2036016610513094,9.77292144974447,-1.8938376269572007e-06,0.0010908291385092687,0.0,1.0769276380562138,63.689465685954616,-84.875
1772747630.8299613,5.296512082649224e-06,1.6195946560145724,-7.028416536141485,-0.26886810887780954,-1.2058981718353787,9.771944192170212,1.8938376269572007e-06,-0.0010908291385092687,-0.002181661564992912,1.0769276380562138,63.689465685954616,-84.875
1772747630.878376,5.296512082649224e-06,1.6195946560145724,-7.028416536141485,-0.26886810887780954,-1.2058981718353787,9.771944192170212,1.8938376269572007e-06,-0.0010908291385092687,-0.002181661564992912,1.0769276380562138,63.689465685954616,-84.875
1772747630.9194381,5.296512082649224e-06,1.6195946560145724,-7.028416536141485,-0.26518716269496095,-1.2141108798498632,9.771293838171227,-0.0010832537880014399,-0.0043652103916640315,-0.001090830782496456,1.0774701825717523,63.37696615692226,-84.0625
1772747630.9456656,5.296512082649224e-06,1.6195946560145724,-7.028416536141485,-0.2627549569004408,-1.2095410252938026,9.770861034849831,-0.0010908291385092687,-1.8938376269572007e-06,-0.001090830782496456,1.0774701825717523,63.37696615692226,-84.0625
1772747630.9719412,5.296512082649224e-06,1.6195946560145724,-7.028416536141485,-0.26448145777961996,-1.2065056457257988,9.767227897366855,-0.0010927229761362259,0.0010889353008823113,-0.001090830782496456,0.3919243789564928,62.250774254471565,-84.875
1772747630.9927518,5.296512082649224e-06,1.6195946560145724,-7.028416536141485,-0.26448145777961996,-1.2065056457257988,9.767227897366855,-0.0010927229761362259,0.0010889353008823113,-0.001090830782496456,0.3919243789564928,62.250774254471565,-84.875
1772747631.0297499,5.296512082649224e-06,1.6195946560145724,-7.028416536141485,-0.2656304248284352,-1.2044856345307036,9.764810084956737,1.8938376269572007e-06,-0.0010908291385092687,-0.001090830782496456,0.3919243789564928,62.250774254471565,-84.875
1772747631.0599174,5.296512082649224e-06,1.6195946560145724,-7.028416536141485,-0.26577911564765905,-1.2055898903779787,9.767701514393288,-0.0010908291385092687,-1.8938376269572007e-06,0.0,0.6411644398606292,62.688707630729304,-85.25
1772747631.122406,5.296512082649224e-06,1.6195946560145724,-7.028416536141485,-0.26577911564765905,-1.2055898903779787,9.767701514393288,-0.0010908291385092687,-1.8938376269572007e-06,0.0,0.6411644398606292,62.688707630729304,-85.25
1772747631.14466,5.296512082649224e-06,1.6195946560145724,-7.028416536141485,-0.26983330071930633,-1.2072271238327343,9.7684703835045,0.0,0.0,0.0,0.39062227211920014,63.000773124149234,-84.5
1772747631.1761098,5.296512082649224e-06,1.6195946560145724,-7.028416536141485,-0.26584110226444607,-1.20830506922691,9.7723271690165,0.0,0.0,-0.001090830782496456,0.39062227211920014,63.000773124149234,-84.5
1772747631.1947684,5.296512082649224e-06,1.6195946560145724,-7.028416536141485,-0.26584110226444607,-1.20830506922691,9.7723271690165,0.0,0.0,-0.001090830782496456,0.39062227211920014,63.000773124149234,-84.5
1772747631.220676,5.296512082649224e-06,1.6195946560145724,-7.028416536141485,-0.26652944545442886,-1.209028237435729,9.7715487049843,-0.0010908291385092687,-1.8938376269572007e-06,0.0,1.3906207650227618,63.002509266598956,-84.0625
1772747631.2549138,5.296512082649224e-06,1.6195946560145724,-7.028416536141485,-0.2636482310825857,-1.2061585835440323,9.771030645866883,1.8938376269572007e-06,-0.0010908291385092687,-0.002181661564992912,1.3906207650227618,63.002509266598956,-84.0625
1772747631.2924821,5.296512082649224e-06,1.6195946560145724,-7.028416536141485,-0.2636482310825857,-1.2061585835440323,9.771030645866883,1.8938376269572007e-06,-0.0010908291385092687,-0.002181661564992912,1.3906207650227618,63.002509266598956,-84.0625
1772747631.3177896,5.296512082649224e-06,1.6195946560145724,-7.028416536141485,-0.265075921769311,-1.2042546685256765,9.770685883311343,0.0010927229761362259,-0.0010889353008823113,0.001090830782496456,0.6406218953450906,63.00120715976166,-84.875
1772747631.3361633,5.296512082649224e-06,1.6195946560145724,-7.028416536141485,-0.2626809273070633,-1.2029818267586512,9.77045644768188,-0.0021797644393915802,-0.001094616813763183,-0.001090830782496456,0.6406218953450906,63.00120715976166,-84.875
1772747631.3496583,5.296512082649224e-06,1.6195946560145724,-7.028416536141485,-0.2644205767313237,-1.2088307857035308,9.770303760833437,-0.0010889353008823115,-0.0010927229761362259,-0.001090830782496456,0.6406218953450906,63.00120715976166,-84.875
1772747631.3639927,5.296512082649224e-06,1.6195946560145724,-7.028416536141485,-0.2644205767313237,-1.2088307857035308,9.770303760833437,-0.0010889353008823115,-0.0010927229761362259,-0.001090830782496456,0.6406218953450906,63.00120715976166,-84.875
1772747631.3933938,5.296512082649224e-06,1.6195946560145724,-7.028416536141485,-0.26557829399001165,-1.2127232025441956,9.770202149441422,-0.0010908291385092687,-1.8938376269572007e-06,0.0,1.7644266019274124,63.6906592838888,-85.5625
1772747631.4313796,5.296512082649224e-06,1.6195946560145724,-7.028416536141485,-0.26969965614946695,-1.2119742633950337,9.773479639902428,-0.0010908291385092687,-1.8938376269572007e-06,0.0,1.7644266019274124,63.6906592838888,-85.5625
1772747631.4616692,5.296512082649224e-06,1.6195946560145724,-7.028416536141485,-0.2724481842183866,-1.2081307460915516,9.77566077319226,-0.0010889353008823115,-0.0010927229761362259,-0.001090830782496456,1.7644266019274124,63.6906592838888,-84.0625
1772747631.4998312,5.296512082649224e-06,1.6195946560145724,-7.028416536141485,-0.2709263846888348,-1.208912227336465,9.777112293031788,-0.0010908291385092687,-1.8938376269572007e-06,0.001090830782496456,1.7644266019274124,63.6906592838888,-84.0625
1772747631.5234547,5.296512082649224e-06,1.6195946560145724,-7.028416536141485,-0.26991945169196685,-1.2060871877093238,9.778078263270455,-0.0021835521146454945,0.0010870414632553542,0.0,1.3911633095383003,62.6900097375666,-84.875
1772747631.5510187,5.296512082649224e-06,1.6195946560145724,-7.028416536141485,-0.2658984347743822,-1.207546454470701,9.775375993966374,-0.0010889353008823115,-0.0010927229761362259,0.0,1.3911633095383003,62.6900097375666,-84.875
1772747631.5921273,5.296512082649224e-06,1.6195946560145724,-7.028416536141485,-0.2632341081143,-1.201827366867493,9.773577663930835,0.0,0.0,-0.001090830782496456,1.3887761136699306,64.065007665309,-85.5625
1772747631.6443431,5.296512082649224e-06,1.6195946560145724,-7.028416536141485,-0.2648061351504077,-1.1980271855443867,9.772380895380845,0.0,0.0,-0.001090830782496456,1.3887761136699306,64.065007665309,-85.5625
1772747631.6767159,5.296512082649224e-06,1.6195946560145724,-7.028416536141485,-0.26585230158224477,-1.1954982073246663,9.771584459279609,0.0010908291385092687,1.8938376269572007e-06,0.0,1.0786637805059371,62.68946719305106,-84.875
1772747631.7340631,5.296512082649224e-06,1.6195946560145724,-7.028416536141485,-0.2665368984753192,-1.200505413901807,9.774399551658329,0.0010908291385092687,1.8938376269572007e-06,0.0,1.0786637805059371,62.68946719305106,-84.875
1772747631.748367,5.296512082649224e-06,1.6195946560145724,-7.028416536141485,-0.2665368984753192,-1.200505413901807,9.774399551658329,0.0010908291385092687,1.8938376269572007e-06,0.0,1.0786637805059371,62.68946719305106,-84.875
1772747631.7738395,5.296512082649224e-06,1.6195946560145724,-7.028416536141485,-0.26699249006021186,-1.2038376539447317,9.776272964189724,0.0010889353008823115,0.0010927229761362259,-0.001090830782496456,1.7649691464429509,63.37815975485644,-84.875
1772747631.7910643,5.296512082649224e-06,1.6195946560145724,-7.028416536141485,-0.2673014887611006,-1.2027101158038247,9.7808648110093,0.0010927229761362259,-0.0010889353008823113,0.001090830782496456,1.7649691464429509,63.37815975485644,-84.875
1772747631.819956,5.296512082649224e-06,1.6195946560145724,-7.028416536141485,-0.2675071239448004,-1.2019597517664773,9.777230410358797,0.0021797644393915802,0.001094616813763183,0.0,1.7649691464429509,63.37815975485644,-84.875
1772747631.8401957,5.296512082649224e-06,1.6195946560145724,-7.028416536141485,-0.2675071239448004,-1.2019597517664773,9.777230410358797,0.0021797644393915802,0.001094616813763183,0.0,1.7649691464429509,63.37815975485644,-84.875
1772747631.8633184,5.296512082649224e-06,1.6195946560145724,-7.028416536141485,-0.26763816427202297,-1.2048054995476514,9.778156869032122,0.0010889353008823115,0.0010927229761362259,0.002181661564992912,1.0781212359903987,63.00196672208342,-84.5
1772747631.8995836,5.296512082649224e-06,1.6195946560145724,-7.028416536141485,-0.26763816427202297,-1.2048054995476514,9.778156869032122,0.0010889353008823115,0.0010927229761362259,0.002181661564992912,1.0781212359903987,63.00196672208342,-84.5
1772747631.9382741,5.296512082649224e-06,1.6195946560145724,-7.028416536141485,-0.2677253701459733,-1.206699312906937,9.775428305222679,0.001094616813763183,-0.0021797644393915802,-0.001090830782496456,1.0781212359903987,63.00196672208342,-84.5
1772747632.016636,5.296512082649224e-06,1.6195946560145724,-7.028416536141485,-0.26778340468093376,-1.2079596245422604,9.77695758819487,0.0032705935779008487,0.0010965106513901402,-0.001090830782496456,1.7644266019274124,63.6906592838888,-84.5
1772747632.0612092,5.296512082649224e-06,1.6195946560145724,-7.028416536141485,-0.26782783360609586,-1.2054532411910512,9.771285085515014,1.8938376269572007e-06,-0.0010908291385092687,0.002181661564992912,1.7644266019274124,63.6906592838888,-84.5
1772747632.151063,5.296512082649224e-06,1.6195946560145724,-7.028416536141485,-0.26785740055948765,-1.203785271068958,9.774200321762216,0.0010908291385092687,1.8938376269572007e-06,0.0,0.6394282974109057,63.68870612363286,-84.875
1772747632.1892912,5.296512082649224e-06,1.6195946560145724,-7.028416536141485,-0.26785740055948765,-1.203785271068958,9.774200321762216,0.0010908291385092687,1.8938376269572007e-06,0.0,0.6394282974109057,63.68870612363286,-84.875
1772747632.278036,5.296512082649224e-06,1.6195946560145724,-7.028416536141485,-0.2712221837025987,-1.2026810631755864,9.776140378919406,-0.0010908291385092687,-1.8938376269572007e-06,-0.002181661564992912,0.6394282974109057,63.68870612363286,-84.875
1772747632.3502579,5.296512082649224e-06,1.6195946560145724,-7.028416536141485,-0.2734614092972487,-1.201946225157358,9.777431465285657,-0.0010870414632553544,-0.0021835521146454945,0.001090830782496456,0.6406218953450906,63.00120715976166,-83.5625
1772747632.4091978,5.296512082649224e-06,1.6195946560145724,-7.028416536141485,-0.2749573965071335,-1.1981120919989918,9.778290668840018,-0.0010908291385092687,-1.8938376269572007e-06,0.0,0.6406218953450906,63.00120715976166,-83.5625
1772747632.4669719,5.296512082649224e-06,1.6195946560145724,-7.028416536141485,-0.2726078526181263,-1.1955547116217389,9.772172235792873,-0.0010908291385092687,-1.8938376269572007e-06,0.0,1.389427167088577,63.690008230470156,-85.25
1772747632.5061355,5.296512082649224e-06,1.6195946560145724,-7.028416536141485,-0.271044257406117,-1.1938528035484877,9.768100486947374,-5.681512880871602e-06,0.003272487415527806,-0.002181661564992912,1.389427167088577,63.690008230470156,-85.25
1772747632.5339336,5.296512082649224e-06,1.6195946560145724,-7.028416536141485,-0.2666585955931143,-1.1927143951468637,9.768735895282427,7.575350507828803e-06,-0.004363316554037075,0.001090830782496456,1.76692230669889,62.25316145033993,-84.5
1772747632.5632324,5.296512082649224e-06,1.6195946560145724,-7.028416536141485,-0.2666585955931143,-1.1927143951468637,9.768735895282427,7.575350507828803e-06,-0.004363316554037075,0.001090830782496456,1.76692230669889,62.25316145033993,-84.5
1772747632.5970378,5.296512082649224e-06,1.6195946560145724,-7.028416536141485,-0.2637341790571794,-1.1953019037383514,9.77250386413875,0.0,0.0,0.0,1.76692230669889,62.25316145033993,-84.5
1772747632.6349728,5.296512082649224e-06,1.6195946560145724,-7.028416536141485,-0.2584429058544744,-1.1970180542111877,9.771666293614343,-0.0010889353008823115,-0.0010927229761362259,0.003272492347489368,1.0786637805059371,62.68946719305106,-84.875
1772747632.6713076,5.296512082649224e-06,1.6195946560145724,-7.028416536141485,-0.2582667293113823,-1.1981659407706373,9.771108899786626,-0.0010927229761362259,0.0010889353008823113,0.0,1.0786637805059371,62.68946719305106,-84.875
1772747632.7113457,5.296512082649224e-06,1.6195946560145724,-7.028416536141485,-0.26149459245588885,-1.1989356540436522,9.770737960420776,-0.001094616813763183,0.0021797644393915802,0.0,2.1411621792159714,62.691311844403884,-84.5
1772747632.7519288,5.296512082649224e-06,1.6195946560145724,-7.028416536141485,-0.2636368917305299,-1.202792996294496,9.76714599270915,-0.0010889353008823115,-0.0010927229761362259,-0.001090830782496456,2.1411621792159714,62.691311844403884,-84.5
1772747632.7859862,5.296512082649224e-06,1.6195946560145724,-7.028416536141485,-0.2650625679667526,-1.2053600144730967,9.76475557832197,1.8938376269572007e-06,-0.0010908291385092687,-0.001090830782496456,2.1411621792159714,62.691311844403884,-84.5
1772747632.8055444,5.296512082649224e-06,1.6195946560145724,-7.028416536141485,-0.2650625679667526,-1.2053600144730967,9.76475557832197,1.8938376269572007e-06,-0.0010908291385092687,-0.001090830782496456,2.1411621792159714,62.691311844403884,-84.5
1772747632.8307686,5.296512082649224e-06,1.6195946560145724,-7.028416536141485,-0.2660113395761117,-1.2070683363954833,9.76316478424998,-0.0010908291385092687,-1.8938376269572007e-06,0.0,1.0769276380562138,63.689465685954616,-84.875
1772747632.8567839,5.296512082649224e-06,1.6195946560145724,-7.028416536141485,-0.2660113395761117,-1.2070683363954833,9.76316478424998,-0.0010908291385092687,-1.8938376269572007e-06,0.0,1.0769276380562138,63.689465685954616,-84.875
1772747632.8955407,5.296512082649224e-06,1.6195946560145724,-7.028416536141485,-0.2632976298177534,-1.2081993979611914,9.765451240272725,0.001094616813763183,-0.0021797644393915802,-0.001090830782496456,1.0769276380562138,63.689465685954616,-84.875
1772747632.9228299,5.296512082649224e-06,1.6195946560145724,-7.028416536141485,-0.2648367929536037,-1.2089579143888185,9.760282627799835,-0.001085147625628397,-0.0032743812531547635,0.0,0.6411644398606292,62.688707630729304,-84.75
1772747632.9360988,5.296512082649224e-06,1.6195946560145724,-7.028416536141485,-0.2648367929536037,-1.2089579143888185,9.760282627799835,-0.001085147625628397,-0.0032743812531547635,0.0,0.6411644398606292,62.688707630729304,-84.75
1772747632.957004,5.296512082649224e-06,1.6195946560145724,-7.028416536141485,-0.26920619549284674,-1.2094685061886548,9.76353319735095,-1.8938376269572007e-06,0.0010908291385092687,0.001090830782496456,0.6411644398606292,62.688707630729304,-84.75
1772747632.9797573,5.296512082649224e-06,1.6195946560145724,-7.028416536141485,-0.26920619549284674,-1.2094685061886548,9.76353319735095,-1.8938376269572007e-06,0.0010908291385092687,0.001090830782496456,0.6411644398606292,62.688707630729304,-84.75
1772747633.0195787,5.296512082649224e-06,1.6195946560145724,-7.028416536141485,-0.2721139840732885,-1.209808299327762,9.765696415075976,-0.0010889353008823115,-0.0010927229761362259,-0.001090830782496456,1.3887761136699306,64.065007665309,-84.5
1772747633.0479953,5.296512082649224e-06,1.6195946560145724,-7.028416536141485,-0.2673588715596188,-1.2100228126852313,9.767136012307255,-0.0010927229761362259,0.0010889353008823113,-0.001090830782496456,1.3887761136699306,64.065007665309,-84.5
1772747633.0748887,5.296512082649224e-06,1.6195946560145724,-7.028416536141485,-0.2641943972998589,-1.210165568928356,9.768094048183317,-3.7876752539144014e-06,0.0021816582770185374,0.0,1.0769276380562138,63.689465685954616,-85.5625
1772747633.0989027,5.296512082649224e-06,1.6195946560145724,-7.028416536141485,-0.2641943972998589,-1.210165568928356,9.768094048183317,-3.7876752539144014e-06,0.0021816582770185374,0.0,1.0769276380562138,63.689465685954616,-85.5625
1772747633.11373,5.296512082649224e-06,1.6195946560145724,-7.028416536141485,-0.2687786883613092,-1.210272186794332,9.768731610356873,0.0010927229761362259,-0.0010889353008823113,0.0,1.0769276380562138,63.689465685954616,-85.5625
1772747633.1347528,5.296512082649224e-06,1.6195946560145724,-7.028416536141485,-0.2687786883613092,-1.210272186794332,9.768731610356873,0.0010927229761362259,-0.0010889353008823113,0.0,1.0769276380562138,63.689465685954616,-85.5625
1772747633.1684706,5.296512082649224e-06,1.6195946560145724,-7.028416536141485,-0.2751745895187312,-1.2103489473835736,9.772501012568659,-0.0010889353008823115,-0.0010927229761362259,0.0,1.7649691464429509,63.37815975485644,-83.5625
1772747633.2058456,5.296512082649224e-06,1.6195946560145724,-7.028416536141485,-0.2794367978825324,-1.2070549240323285,9.775009507633621,-1.8938376269572007e-06,0.0010908291385092687,-0.002181661564992912,1.7649691464429509,63.37815975485644,-83.5625
1772747633.2368877,5.296512082649224e-06,1.6195946560145724,-7.028416536141485,-0.2789281432707415,-1.2048569806982925,9.780023994784948,0.0010908291385092687,1.8938376269572007e-06,0.0,1.763775548508766,64.06565871872763,-83.5625
1772747633.2552893,5.296512082649224e-06,1.6195946560145724,-7.028416536141485,-0.27858963930863906,-1.2033942739621273,9.780015968261344,0.0010908291385092687,1.8938376269572007e-06,0.001090830782496456,1.763775548508766,64.06565871872763,-83.5625
1772747633.2863727,5.296512082649224e-06,1.6195946560145724,-7.028416536141485,-0.2783527535223286,-1.2091110723005412,9.780010626699546,-0.0010889353008823115,-0.0010927229761362259,0.0,1.763775548508766,64.06565871872763,-83.5625
1772747633.3102784,5.296512082649224e-06,1.6195946560145724,-7.028416536141485,-0.2783527535223286,-1.2091110723005412,9.780010626699546,-0.0010889353008823115,-0.0010927229761362259,0.0,1.763775548508766,64.06565871872763,-83.5625
1772747633.3321111,5.296512082649224e-06,1.6195946560145724,-7.028416536141485,-0.2715048953458997,-1.2129039225530656,9.77666196024252,1.8938376269572007e-06,-0.0010908291385092687,-0.001090830782496456,0.6406218953450906,63.00120715976166,-83.6875
1772747633.3474026,5.296512082649224e-06,1.6195946560145724,-7.028416536141485,-0.26695352981550846,-1.2120829153612935,9.777778571829744,-0.0021816582770185374,-3.7876752539144014e-06,0.001090830782496456,0.6406218953450906,63.00120715976166,-83.6875
1772747633.3796823,5.296512082649224e-06,1.6195946560145724,-7.028416536141485,-0.26695352981550846,-1.2120829153612935,9.777778571829744,-0.0021816582770185374,-3.7876752539144014e-06,0.001090830782496456,0.6406218953450906,63.00120715976166,-83.6875
1772747633.412982,5.296512082649224e-06,1.6195946560145724,-7.028416536141485,-0.26392464689711737,-1.2115365442464205,9.775176552660353,0.0021835521146454945,-0.0010870414632553542,-0.002181661564992912,1.0769276380562138,63.689465685954616,-84.5
1772747633.4442267,5.296512082649224e-06,1.6195946560145724,-7.028416536141485,-0.2619147667402014,-1.2078278337069244,9.776790049676903,-0.003274381253154763,0.001085147625628397,-0.002181661564992912,1.0769276380562138,63.689465685954616,-84.5
1772747633.4629955,5.296512082649224e-06,1.6195946560145724,-7.028416536141485,-0.2639223206135198,-1.2053655358623354,9.774518702210154,-0.0010908291385092687,-1.8938376269572007e-06,0.002181661564992912,1.0762765846375675,64.06446512079346,-84.5
1772747633.4911256,5.296512082649224e-06,1.6195946560145724,-7.028416536141485,-0.26525832529036697,-1.2037269041524303,9.779697369258285,-0.0010870414632553544,-0.0021835521146454945,0.0,1.0762765846375675,64.06446512079346,-84.5
1772747633.5149739,5.296512082649224e-06,1.6195946560145724,-7.028416536141485,-0.26525832529036697,-1.2037269041524303,9.779697369258285,-0.0010870414632553544,-0.0021835521146454945,0.0,1.0762765846375675,64.06446512079346,-84.5
1772747633.5415301,5.296512082649224e-06,1.6195946560145724,-7.028416536141485,-0.26614742147865866,-1.202636413054204,9.776453490914676,-1.8938376269572007e-06,0.0010908291385092687,0.001090830782496456,1.0762765846375675,64.06446512079346,-84.5
1772747633.5588887,5.296512082649224e-06,1.6195946560145724,-7.028416536141485,-0.2667391050601115,-1.2019107034099181,9.784330061235458,0.0010908291385092687,1.8938376269572007e-06,0.0,1.3899697116041154,63.37750870143779,-84.0625
1772747633.5926867,5.296512082649224e-06,1.6195946560145724,-7.028416536141485,-0.2671212486931615,-1.208117965080181,9.782881607382244,-0.0010927229761362259,0.0010889353008823113,0.0,1.3899697116041154,63.37750870143779,-84.0625
1772747633.6216319,5.296512082649224e-06,1.6195946560145724,-7.028416536141485,-0.26737556101213217,-1.2122488283820845,9.78526278923054,3.7876752539144014e-06,-0.0021816582770185374,-0.001090830782496456,1.3899697116041154,63.37750870143779,-84.0625
1772747633.6516662,175.37308582812693,-53.308042992660035,-177.62661809475208,-0.2675564182004207,-1.2083076584329078,9.783502327443717,1.8938376269572007e-06,-0.0010908291385092687,0.0,1.763775548508766,64.06565871872763,-84.875
1772747633.6826468,5.296512082649224e-06,1.6195946560145724,-7.028416536141485,-0.2676767766389195,-1.2056848538574838,9.778985648082912,-1.8938376269572007e-06,0.0010908291385092687,0.001090830782496456,1.763775548508766,64.06565871872763,-84.875
1772747633.7226212,5.296512082649224e-06,1.6195946560145724,-7.028416536141485,-0.2676767766389195,-1.2056848538574838,9.778985648082912,-1.8938376269572007e-06,0.0010908291385092687,0.001090830782496456,1.763775548508766,64.06565871872763,-84.875
1772747633.7553022,5.296512082649224e-06,1.6195946560145724,-7.028416536141485,-0.2677510662448145,-1.2072845133770995,9.769289625008273,-0.0010927229761362259,0.0010889353008823113,0.0,1.763775548508766,64.06565871872763,-84.875
1772747633.7681904,5.296512082649224e-06,1.6195946560145724,-7.028416536141485,-0.2678005051476683,-1.208349068918036,9.762837029963777,-1.8938376269572007e-06,0.0010908291385092687,0.0,1.3919228718600545,62.25251039692129,-84.875
1772747633.7828884,5.296512082649224e-06,1.6195946560145724,-7.028416536141485,-0.2678005051476683,-1.208349068918036,9.762837029963777,-1.8938376269572007e-06,0.0010908291385092687,0.0,1.3919228718600545,62.25251039692129,-84.875
1772747633.8055227,5.296512082649224e-06,1.6195946560145724,-7.028416536141485,-0.26783340618524887,-1.2090575187386647,9.765233123456511,-0.0010870414632553544,-0.0021835521146454945,0.0,1.3919228718600545,62.25251039692129,-84.875
1772747633.832876,5.296512082649224e-06,1.6195946560145724,-7.028416536141485,-0.26785530145822994,-1.20952898418039,9.766827696909807,0.0,0.0,-0.001090830782496456,1.3919228718600545,62.25251039692129,-84.875
1772747633.872937,5.296512082649224e-06,1.6195946560145724,-7.028416536141485,-0.26453446272928216,-1.2100457320123574,9.75855972993553,0.0010927229761362259,-0.0010889353008823113,0.0,1.3906207650227618,63.002509266598956,-84.875
1772747633.9048645,5.296512082649224e-06,1.6195946560145724,-7.028416536141485,-0.26233220754528613,-1.2001455014867926,9.765731739775605,-1.8938376269572007e-06,0.0010908291385092687,-0.001090830782496456,1.7656201998615972,63.00316032001761,-84.5
1772747633.9472342,5.296512082649224e-06,1.6195946560145724,-7.028416536141485,-0.2642117379870526,-1.1935628162552843,9.767159520500256,-0.0010889353008823115,-0.0010927229761362259,0.001090830782496456,1.7656201998615972,63.00316032001761,-84.5
1772747633.9732714,5.296512082649224e-06,1.6195946560145724,-7.028416536141485,-0.2642117379870526,-1.1935628162552843,9.767159520500256,-0.0010889353008823115,-0.0010927229761362259,0.001090830782496456,1.7656201998615972,63.00316032001761,-84.5
1772747634.0005476,5.296512082649224e-06,1.6195946560145724,-7.028416536141485,-0.2654625445003174,-1.1891821127671278,9.768109692623154,-5.681512880871602e-06,0.003272487415527806,0.0,1.3906207650227618,63.002509266598956,-85.6875
1772747634.032213,0.005589922436025129,1.6410513120893022,-7.035765745436259,-0.2662833270816026,-1.192957016863251,9.768742021556825,-0.008734208458581978,0.004348165853021417,0.013089969389957472,1.3906207650227618,63.002509266598956,-85.6875
1772747634.0657227,-0.007406490465379226,1.626145971623593,-7.028527410329941,-0.2568116514942679,-1.1854164306017365,9.769162829398606,1.7044538642614806e-05,-0.009817462246583418,-0.008726646259971648,1.389427167088577,63.690008230470156,-83.25
1772747634.087189,-0.01438935987383026,1.6257172100134105,-7.028626083460265,-0.27051511369715053,-1.2172292735462191,9.769442872316581,-0.009825037597091246,0.00434627201539446,-0.007635815477475192,1.389427167088577,63.690008230470156,-83.25
1772747634.1071239,-0.007406490465379226,1.626145971623593,-7.028527410329941,-0.27967526784850516,-1.2149846184916375,9.722797673847738,0.0010984044890170975,-0.004361422716410117,0.006544984694978736,1.389427167088577,63.690008230470156,-83.25
1772747634.127081,-0.028566067467814944,1.624930400206592,-7.043218733420559,-0.3058012349730468,-1.236941417831252,9.691755815327731,0.0010889353008823115,0.0010927229761362259,-0.02399827721492203,0.6399708419264443,63.376206594600504,-83.25
1772747634.157616,-0.028566067467814944,1.624930400206592,-7.043218733420559,-0.3058012349730468,-1.236941417831252,9.691755815327731,0.0010889353008823115,0.0010927229761362259,-0.02399827721492203,0.6399708419264443,63.376206594600504,-83.25
1772747634.1830292,-0.049085705789701346,1.6166608937372564,-7.043499002828906,-0.3232284273812928,-1.228137675856852,9.671097805242947,0.006537399480547783,0.004374679579798818,-0.002181661564992912,0.6399708419264443,63.376206594600504,-83.25
1772747634.2100255,-0.049085705789701346,1.6166608937372564,-7.043499002828906,-0.3232284273812928,-1.228137675856852,9.671097805242947,0.006537399480547783,0.004374679579798818,-0.002181661564992912,0.6399708419264443,63.376206594600504,-83.25
1772747634.2423246,-0.02158288347057961,1.625360085827419,-7.043120157789532,-0.33162030475899174,-1.1419905163447737,9.704181694199088,-0.004372785742171861,0.005446570342038514,0.00545415391248228,0.6406218953450906,63.00120715976166,-84.0625
1772747634.2791698,-0.014268086673558562,1.6187963794926195,-7.049991656314419,-0.3204794720808706,-1.084631506064141,9.726198652728144,-0.00762254710617618,-0.007649060832953581,0.011999138607461015,0.6406218953450906,63.00120715976166,-84.0625
1772747634.322289,0.03408463173639324,1.6287769602765743,-7.056295966397344,-0.31288533708137783,-1.1501580321078246,9.750886027805647,-0.0021835521146454945,0.0010870414632553542,0.030543261909900768,0.6406218953450906,63.00120715976166,-85.25
1772747634.3526163,0.032592233571086086,1.649697193557591,-7.070292680029782,-0.30781410229995937,-1.2038005232083793,9.767315200143676,0.001064315411731868,0.015273501776756718,-0.004363323129985824,0.6406218953450906,63.00120715976166,-85.25
1772747634.3779206,0.032592233571086086,1.649697193557591,-7.070292680029782,-0.30781410229995937,-1.2038005232083793,9.767315200143676,0.001064315411731868,0.015273501776756718,-0.004363323129985824,0.6406218953450906,63.00120715976166,-85.25
1772747634.3937724,0.03279280789595095,1.6497177340694136,-7.056326517255134,-0.27769582164632456,-1.2294172210886962,9.778248630808754,0.011993439010721082,0.0032933196294243354,0.002181661564992912,1.7649691464429509,63.37815975485644,-84.5
1772747634.4079053,0.03279280789595095,1.6497177340694136,-7.056326517255134,-0.27769582164632456,-1.2294172210886962,9.778248630808754,0.011993439010721082,0.0032933196294243354,0.002181661564992912,1.7649691464429509,63.37815975485644,-84.5
1772747634.4209163,0.05394311546738846,1.651026925169709,-7.04205902918102,-0.25778020930412143,-1.1728725007206864,9.78552470678194,0.002170295251256794,0.006548762506309527,0.02945243112740431,1.7649691464429509,63.37815975485644,-84.5
1772747634.4344323,0.17804525476913297,1.6796932421669986,-7.061196357398013,-0.2445265917623521,-1.1352426209616895,9.80374730089228,-0.017477886105298743,0.014150477398589177,0.08508480103472356,1.7649691464429509,63.37815975485644,-84.5
1772747634.4684997,0.17804525476913297,1.6796932421669986,-7.061196357398013,-0.2445265917623521,-1.1352426209616895,9.80374730089228,-0.017477886105298743,0.014150477398589177,0.08508480103472356,1.7649691464429509,63.37815975485644,-84.5
1772747634.4966218,0.4925828094487071,1.783598639873309,-7.154403580132338,-0.18536143722962162,-1.2071213357903543,9.815874233712996,-0.06114514072295472,0.03370964838667772,0.16144295580947549,-0.04752812194475429,63.375012996666314,-83.6875
1772747634.5331287,1.4114369360230186,1.7444988115176638,-7.27407290683844,-0.19616428779487247,-1.2550429314274876,9.847360353989703,-0.06641937184094013,-0.06992858895983758,0.3687008044838021,-0.04752812194475429,63.375012996666314,-83.6875
1772747634.5523336,1.4114369360230186,1.7444988115176638,-7.27407290683844,-0.19616428779487247,-1.2550429314274876,9.847360353989703,-0.06641937184094013,-0.06992858895983758,0.3687008044838021,-0.04752812194475429,63.375012996666314,-83.6875
1772747634.5967672,3.7005539275897026,2.1049722872558263,-8.24866383386625,-0.14822965756252177,-1.1943431743450763,10.011587002211323,-0.3960524122968237,0.04621818989731309,0.7908523173099306,0.38942867418501526,63.68827208802043,-83.6875
1772747634.627267,3.7005539275897026,2.1049722872558263,-8.24866383386625,-0.14822965756252177,-1.1943431743450763,10.011587002211323,-0.3960524122968237,0.04621818989731309,0.7908523173099306,0.38942867418501526,63.68827208802043,-83.6875
1772747634.6464722,5.443028422313176,2.5255724532106196,-8.806297181054495,-0.17486830096669773,-1.2064037353265442,10.28535529224385,-0.37758975196012523,0.09315603809286992,1.0657416744990376,2.137364367607201,64.87880854763043,-82.875
1772747634.6791496,10.126880193027102,3.5828132595967803,-9.341194456837076,-0.19270055720684676,-1.1542179839479751,10.467545031068314,-0.22705911852110014,0.09559904596240854,1.5500705419274639,2.137364367607201,64.87880854763043,-82.875
1772747634.718968,10.126880193027102,3.5828132595967803,-9.341194456837076,-0.19270055720684676,-1.1542179839479751,10.467545031068314,-0.22705911852110014,0.09559904596240854,1.5500705419274639,2.137364367607201,64.87880854763043,-82.875
1772747634.7494035,12.852342905585578,4.300140098333997,-9.574627083215297,-0.0944637764914411,-0.9553870722444917,10.568719596819344,-0.25225613745154984,0.15773274859201686,1.6853335589570244,5.886165118061372,65.5728180456881,-82.0625
1772747634.770006,16.7244282931108,5.348953041335623,-9.591409098866377,-0.02908829630208247,-0.8230673215926392,10.288158522571486,-0.07113494219359123,0.13295805545237854,1.8293232222465567,5.886165118061372,65.5728180456881,-82.0625
1772747634.7976556,19.80954270906948,5.887495514112562,-9.189534477005186,0.0076932965975394065,-0.7149509808276836,9.997749798805188,0.13533099132971976,-0.039035013120590975,1.896954730761337,5.886165118061372,65.5728180456881,-82.0625
1772747634.8194976,19.80954270906948,5.887495514112562,-9.189534477005186,0.0076932965975394065,-0.7149509808276836,9.997749798805188,0.13533099132971976,-0.039035013120590975,1.896954730761337,5.886165118061372,65.5728180456881,-82.0625
1772747634.836017,23.06971664181111,6.142607054851372,-8.446632738335753,0.03217103579492322,-0.6430007637872666,9.670681568923948,0.2763187689780703,-0.1947792748735389,1.9776762086660746,11.389412096124191,63.707369654967394,-82.5
1772747634.860259,25.361307872210197,6.148464537138727,-7.897255004681038,0.04834454598783624,-0.5282165647651876,9.372738634553839,0.2667342487596026,-0.32896830344882155,2.0605793481358052,11.389412096124191,63.707369654967394,-82.5
1772747634.8871648,31.288443222599987,5.839929476450857,-6.686072958206345,0.0055861296966578855,-0.45192188398645844,9.174460939971183,0.19267149759858976,-0.3945468327180108,2.115120887260628,13.145160430570133,60.39791289651136,-86.875
1772747634.9213145,31.288443222599987,5.839929476450857,-6.686072958206345,0.0055861296966578855,-0.45192188398645844,9.174460939971183,0.19267149759858976,-0.3945468327180108,2.115120887260628,13.145160430570133,60.39791289651136,-86.875
1772747634.9429855,34.87021913372408,5.498984201473292,-6.118482084157855,-0.2075526287679532,-0.5783778860631005,9.148689878465204,0.06397259763076567,-0.40567859694308445,2.009310301358472,13.145160430570133,60.39791289651136,-86.875
1772747634.9646661,9.13483775068905,-14.933976419665644,126.98207009580302,-0.2075526287679532,-0.5783778860631005,9.148689878465204,0.06397259763076567,-0.40567859694308445,2.009310301358472,13.145160430570133,60.39791289651136,-86.875
1772747634.9822557,41.605639173763564,4.809439279423,-5.299440803247731,-0.4218424179469171,-0.7399789740443964,9.262861926802469,0.04759500985211097,-0.3969803713994146,1.9318613158012234,13.964061231337633,56.711829069669875,-88.0625
1772747634.9967437,42.69355697360843,4.6894628806784935,-5.184098906924369,-0.5644382636908573,-0.8542129062253409,9.34553237300021,0.046492817687839964,-0.39043729040598596,1.9296796542362307,13.964061231337633,56.711829069669875,-88.0625
1772747635.0105374,44.88122197340813,4.4423140979475955,-4.954889500796611,-0.6292282461402601,-0.9301820437012175,9.42396441340665,0.05851087658771149,-0.4013247495771821,1.9438604544086846,13.964061231337633,56.711829069669875,-88.0625
1772747635.0346072,44.88122197340813,4.4423140979475955,-4.954889500796611,-0.6292282461402601,-0.9301820437012175,9.42396441340665,0.05851087658771149,-0.4013247495771821,1.9438604544086846,13.964061231337633,56.711829069669875,-88.0625
1772747635.0649397,49.19944516662034,3.890546701030231,-4.556817901751789,-0.6356129658785393,-0.9438785992407195,9.522991624056306,0.03233476493874296,-0.4035518599572476,1.8871372537188689,10.284270920876397,52.26793373212697,-93.0
1772747635.109335,52.2346140451913,3.512492608039264,-4.359688852320335,-0.639890963494542,-0.9362679706221405,9.615654020195784,-0.012461195569961434,-0.36217800003660067,1.7835083293817056,10.284270920876397,52.26793373212697,-93.0
1772747635.1504185,56.10497726997638,3.1064139616839577,-4.245532812291429,-0.579424815265506,-0.790598358106155,9.677319809719819,-0.06820332421629764,-0.2990064957220379,1.7213309747794074,8.099161413518226,50.8891379927758,-94.875
1772747635.209428,59.66572130953422,2.824306555818277,-4.116652019327972,-0.5590461434208952,-0.7396131991827688,9.740061257720248,0.3026956274154963,-0.3081800531754559,1.2566370614359172,2.478184720350679,48.56687567665662,-95.25
1772747635.2555282,67.41028015686702,1.6031339250952796,-2.5969409110919157,-0.6056040558816548,-0.8338117332889078,9.656412973645546,0.22960060594724052,-0.3028527946039157,1.1573714602287397,2.478184720350679,48.56687567665662,-95.25
1772747635.3267624,71.10697890900045,0.887405756111482,-2.460223596823211,-0.6365239430435549,-0.9332959787950177,9.600745975006392,0.029956147548520867,-0.2901094172275376,1.0831949670189809,-6.266051120690775,45.23918942247849,-94.0625
1772747635.3489647,72.22267150473634,0.716960165409086,-2.5410392239071267,-0.6303399292247208,-0.9994551721440221,9.664053560472736,-0.011552174843640054,-0.25745650890208394,1.0188359508516898,-6.266051120690775,45.23918942247849,-94.0625
1772747635.374885,73.24594304276319,0.5660332860176447,-2.558936156503421,-0.6028087904468534,-1.0434427231381311,9.739635168481714,-0.029172098770960584,-0.1614938461152996,0.8933904108645975,-6.266051120690775,45.23918942247849,-94.0625
1772747635.3939128,73.24594304276319,0.5660332860176447,-2.558936156503421,-0.6028087904468534,-1.0434427231381311,9.739635168481714,-0.029172098770960584,-0.1614938461152996,0.8933904108645975,-6.266051120690775,45.23918942247849,-94.0625
1772747635.4118235,74.56706520132158,0.4838685324389767,-2.6018492281693524,-0.4475235947245953,-0.96543442243454,9.836765448212278,-0.03367177163413858,-0.0829617234931401,0.7897614865274342,-11.078543867789163,45.230834236939195,-94.0625
1772747635.4482558,75.68623218789261,0.6042692067822113,-2.673857659149012,-0.2907426312321908,-0.8665963549563818,9.971651910210356,-0.0470363277521586,0.07518577553918036,0.6610434541928523,-11.078543867789163,45.230834236939195,-94.0625
1772747635.4958196,75.68623218789261,0.6042692067822113,-2.673857659149012,-0.2907426312321908,-0.8665963549563818,9.971651910210356,-0.0470363277521586,0.07518577553918036,0.6610434541928523,-11.078543867789163,45.230834236939195,-94.0625
1772747635.5220494,78.31239737023544,1.2332595129420976,-2.892089793698482,-0.18640665138611187,-0.8008207251432246,10.06141734388957,-0.059147184695751025,0.1395238624973307,0.6697701004528239,-13.578540100048068,45.226493880814886,-92.5
1772747635.5540206,79.98645198320436,1.565147062596744,-3.0236611810407865,-0.13038168692363325,-0.7403454752966664,10.040872556281824,-0.0820091445013987,0.11330419258294215,0.7635815477475192,-13.578540100048068,45.226493880814886,-92.5
1772747635.5990171,81.86845196701603,1.8285645744569434,-3.1271461079504004,-0.09318481277022574,-0.6499232720878853,10.007129559385268,35.65901326026767,0.17208329501466701,0.8464846872172498,-14.768642524045632,46.72442995101118,-92.875
1772747635.6326377,83.32691927527672,1.9640716785268892,-3.158861777599616,-0.024961744651870815,-0.5796374872612506,9.971293525055305,-0.04920662300341539,0.06863701303287084,0.8792096106921435,-14.768642524045632,46.72442995101118,-92.875
1772747635.657299,84.740921700869,2.066066817435951,-3.162239764515445,0.020439945079288414,-0.5328630826027866,9.893923257206339,-0.02516292985316451,0.042498778136441456,0.8519388411297321,-14.335049503912202,48.975186122365955,-90.875
1772747635.7196035,86.11193759807144,2.103419995514318,-3.1472162888411406,-0.032834022052147284,-0.5821629885496911,9.802292867747541,-0.022869535156155498,-0.021856353360351473,0.8203047484373349,-14.335049503912202,48.975186122365955,-90.875
1772747635.7566938,88.6901581004199,2.1335369820715013,-3.1380619874556164,-0.11510713021083153,-0.6217430448392269,9.73462364372659,-0.03157533605033312,-0.03387062458496908,0.7395832705325971,-14.338304771005433,50.85018329656013,-89.25
1772747635.7998605,90.40851855495494,2.423139862628972,-3.169700797042032,-0.21658592133457252,-0.708376356414234,9.689590531055408,-0.007794886330229286,0.09161639077138986,0.5857761302005968,-14.338304771005433,50.85018329656013,-89.25
1772747635.8278964,91.13317266368645,2.8279629403675433,-3.0323042628005954,-0.2841073080541808,-0.7727200708417278,9.673001944454846,0.08679855318688305,0.2695863042219459,0.3937899124812206,-13.591995204033426,52.97648220081749,-89.25
1772747635.8441253,91.58371352815517,3.3626229028342567,-2.886041826823636,-0.25207554538458904,-0.8321320527764209,9.69541354245202,0.2021726676268533,0.4159581555706454,0.24870941840919197,-13.591995204033426,52.97648220081749,-89.25
1772747635.9358377,91.41302917082463,5.110084015246475,-1.629633594518042,-0.21740737643472696,-0.8549212993873313,9.710328210565184,0.3841309177813089,0.5373564608288761,-0.07090400086226964,-13.594056873192473,54.16398041114047,-89.75
1772747635.9683778,90.69442348941651,5.807806059668602,-0.7670952318190474,-0.20773975429280622,-0.85673009213241,9.793846213147763,0.35737720699073644,0.2395127600751718,-0.2716168648416175,-13.594056873192473,54.16398041114047,-89.75
1772747636.014619,90.69442348941651,5.807806059668602,-0.7670952318190474,-0.20773975429280622,-0.85673009213241,9.793846213147763,0.35737720699073644,0.2395127600751718,-0.2716168648416175,-13.594056873192473,54.16398041114047,-89.75
1772747636.042825,90.14044350171517,5.556371801360648,-0.6862560621951775,-0.2581786806627361,-0.8546874458701879,9.84942651090925,0.054706220799008706,-0.0948074431689585,-0.2007128639793479,-9.961249695393306,49.670280709454694,-92.5
1772747636.0623465,90.0404137144216,4.996300448746596,-1.2401788075533426,-0.3151609693835928,-0.853368740733572,9.84292812600176,-0.259083272754404,-0.30806455041482955,-0.05345070834232634,-9.961249695393306,49.670280709454694,-92.5
1772747636.09223,89.93220860068267,4.365711666954396,-2.050491927956282,-0.3764222939792006,-0.8960181969859695,9.818532853193625,-0.31793880645560363,-0.3365283752479263,-0.0545415391248228,-9.961249695393306,49.670280709454694,-92.5
1772747636.1147282,89.68895390609444,3.909023417670422,-2.7458693174230357,-0.4238812344955692,-0.9244125488771652,9.788917624823586,-0.32356339753457614,-0.23836322197022686,-0.1538071403320003,-12.585052141330971,48.97822437165297,-91.25
1772747636.1360044,89.35914524580814,3.680191612460389,-3.3198331797076177,-0.4688624786930662,-0.9332965832390586,9.698961675313397,-0.2954158435851813,-0.11505028954037862,-0.20507618710933373,-12.585052141330971,48.97822437165297,-91.25
1772747636.1977403,89.35914524580814,3.680191612460389,-3.3198331797076177,-0.4688624786930662,-0.9332965832390586,9.698961675313397,-0.2954158435851813,-0.11505028954037862,-0.20507618710933373,-12.585052141330971,48.97822437165297,-91.25
1772747636.238483,88.56198289027577,3.776021504423821,-4.1293144045575705,-0.555514253259557,-0.9432072124711717,9.54911650466566,-0.09172244567849948,0.053291545426289756,-0.15817046346198613,-16.588843924553988,51.15877650508062,-89.6875
1772747636.2624066,88.56198289027577,3.776021504423821,-4.1293144045575705,-0.555514253259557,-0.9432072124711717,9.54911650466566,-0.09172244567849948,0.053291545426289756,-0.15817046346198613,-16.588843924553988,51.15877650508062,-89.6875
1772747636.3050404,88.3240165599167,3.793054018271579,-4.414730670868803,-0.5933286466535906,-0.9057268254145354,9.699942070553659,-0.10256255890902169,0.014002758063686517,-0.08290313946973066,-17.27699394184383,51.53258234198527,-89.0
1772747636.335651,88.46189508387346,3.5689250297279234,-4.555499550722893,-0.568375178958508,-0.8472458659960541,9.867217033966543,-0.06305408638169142,-0.12337353523391088,0.09817477042468103,-17.27699394184383,51.53258234198527,-89.0
1772747636.3623767,88.69633516809371,3.364506314234358,-4.6095763881207885,-0.551768924955929,-0.8083274407781759,9.978536653534043,-0.02485234048234353,-0.13639720057907861,0.1439896632895322,-18.090686315262158,52.21867069011606,-89.6875
1772747636.3973413,89.12485232365792,3.0896662890952635,-4.5592575009246294,-0.5439930640019284,-0.822574751124369,9.952265265615003,0.03186319936963061,-0.13193540446843974,0.20180369476184434,-18.090686315262158,52.21867069011606,-89.6875
1772747636.4103904,89.12485232365792,3.0896662890952635,-4.5592575009246294,-0.5439930640019284,-0.822574751124369,9.952265265615003,0.03186319936963061,-0.13193540446843974,0.20180369476184434,-18.090686315262158,52.21867069011606,-89.6875
1772747636.4352224,89.4539716540087,2.984539212445923,-4.440836444139049,-0.5454852983691895,-0.8454482188513978,9.881260163108402,0.06776776289671557,-0.078422280039796,0.18980455615438332,-19.591986161454795,52.96606534611915,-89.25
1772747636.4705536,89.81845200207427,3.0733257703447294,-4.1990086259364245,-0.5564439925837823,-0.9008289588726228,9.803901055203351,0.15590902562649323,0.046085642598044166,0.15489797111449674,-19.591986161454795,52.96606534611915,-89.25
1772747636.4903896,90.00901195667564,3.2336146597053745,-4.080126660106249,-0.5837784832102683,-0.9544446015855188,9.698897645733288,0.1264414881857273,0.054761142090190465,0.12326387842209953,-19.152750678359762,51.96682641553734,-89.6875
1772747636.5327072,90.08997146446276,3.3701993161734376,-4.023637896833224,-0.6019692813759273,-0.9901252128849787,9.6290190496959,0.031558291511690505,0.0436880868315525,0.0,-19.152750678359762,51.96682641553734,-89.6875
1772747636.551059,90.08997146446276,3.3701993161734376,-4.023637896833224,-0.6019692813759273,-0.9901252128849787,9.6290190496959,0.031558291511690505,0.0436880868315525,0.0,-19.152750678359762,51.96682641553734,-89.6875
1772747636.5859084,89.9678412294685,3.4400809414816695,-4.052034578373199,-0.577342764520371,-0.9770102043064015,9.666143417311067,0.015176916057781901,0.05456797065224083,-0.06763150851478027,-19.152750678359762,51.96682641553734,-89.6875
1772747636.6373103,89.10493090588447,3.4328888746308763,-4.271264034325609,-0.49989465455412274,-0.9623869253548704,9.785300004266979,0.019562958663342463,0.04148559634063744,-0.21598449493429828,-17.65318697461685,52.21943025243782,-92.0625
1772747636.6595473,89.10493090588447,3.4328888746308763,-4.271264034325609,-0.49989465455412274,-0.9623869253548704,9.785300004266979,0.019562958663342463,0.04148559634063744,-0.21598449493429828,-17.65318697461685,52.21943025243782,-92.0625
1772747636.6823046,88.70073253884193,3.4032784854129075,-4.248402913898323,-0.3823166100853456,-0.948294675377851,9.823668434122581,0.04899451318919619,0.053535850480167235,-0.24107360293171676,-17.654489081454145,52.969429122115486,-93.25
1772747636.7279484,88.33212442143817,3.5398224014948707,-4.153028444278369,-0.2539221728876601,-0.9221037932528121,9.752193956075777,0.07069935953939108,0.11793264640475323,-0.2007128639793479,-17.654489081454145,52.969429122115486,-93.25
1772747636.7471807,87.97703451517039,3.459575898233728,-4.043646782625182,-0.08824100993399123,-0.8777738182721952,9.704628489357862,0.06521112476955951,0.13755810170978527,-0.1461713248545251,-16.97773249899061,59.158113394890464,-94.5
1772747636.7657099,87.97703451517039,3.459575898233728,-4.043646782625182,-0.08824100993399123,-0.8777738182721952,9.704628489357862,0.06521112476955951,0.13755810170978527,-0.1461713248545251,-16.97773249899061,59.158113394890464,-94.5
1772747636.8039029,87.98878374919308,3.2415064587998996,-4.078662883927325,0.025287561222086377,-0.8047805208735531,9.733186213329919,-0.004548912641478881,0.1068936802234005,-0.009817477042468103,-16.97773249899061,59.158113394890464,-94.5
1772747636.8376846,88.46064181729321,3.1812333214787563,-4.277082084703145,0.10083955712922028,-0.7562042968433152,9.755536171329961,-0.07957939349524877,-0.029590636886518126,0.18871372537188688,-15.839496108294961,51.535078046756745,-95.6875
1772747636.8561563,88.46064181729321,3.1812333214787563,-4.277082084703145,0.10083955712922028,-0.7562042968433152,9.755536171329961,-0.07957939349524877,-0.029590636886518126,0.18871372537188688,-15.839496108294961,51.535078046756745,-95.6875
1772747636.8825517,88.77859654695239,3.0328262234865297,-4.444538559158944,0.020874287309763286,-0.8478728050488983,9.780445153835558,-0.09473926501438805,-0.09397606978534238,0.18871372537188688,-15.839496108294961,51.535078046756745,-95.6875
1772747636.9202826,89.06135183464954,2.744732620194212,-4.68162633232569,-0.07582809314136658,-0.9089526719310254,9.797021803441467,-0.08489339520340027,-0.11032146232433879,0.06763150851478027,-15.465690271390311,52.22322806404659,-96.0625
1772747636.9582367,89.02288061138879,2.6228117865889966,-4.849463461832832,-0.16026470227157266,-0.9429452732450391,9.680939133702754,-0.0958925907945869,-0.05798060205216347,-0.05126904677733343,-15.465690271390311,52.22322806404659,-96.0625
1772747637.0023816,88.66803044122851,2.550201387182451,-5.129160079126411,-0.23318766334899976,-0.9622509009835353,9.603687413720026,-0.10147551744576636,0.016186310178332008,-0.18435040224190105,-18.46644531242275,52.65551897734272,-95.6875
1772747637.0167184,88.66803044122851,2.550201387182451,-5.129160079126411,-0.23318766334899976,-0.9622509009835353,9.603687413720026,-0.10147551744576636,0.016186310178332008,-0.18435040224190105,-18.46644531242275,52.65551897734272,-95.6875
1772747637.0387068,88.43620846136517,2.572822067845208,-5.2586518593038445,-0.30847793267048473,-0.9751450413089854,9.625869714590802,-0.10369884015057794,0.04018076355028201,-0.21489366415180183,-18.46644531242275,52.65551897734272,-95.6875
1772747637.0639246,87.98543417498267,2.5900260654781113,-5.6507979520921685,-0.35858276585651677,-0.9837259476585872,9.761055809491266,-0.1898288899897632,0.01385125105352994,-0.1810779098944117,-18.092639475518098,53.34366899463257,-96.0625
1772747637.1025186,87.98543417498267,2.5900260654781113,-5.6507979520921685,-0.35858276585651677,-0.9837259476585872,9.761055809491266,-0.1898288899897632,0.01385125105352994,-0.1810779098944117,-18.092639475518098,53.34366899463257,-96.0625
1772747637.1379883,87.35046922921792,2.3153949788082455,-6.33261169527688,-0.3394008591552475,-1.0232130495402652,9.837298781362856,-0.0762917553787053,-0.0383115884817114,-0.07744898555724837,-19.969047265452676,54.15291250302348,-95.6875
1772747637.2096512,87.35134568128883,2.2586880711924446,-6.435528401177497,-0.3423538394944878,-1.0223410000187205,9.828167034049612,0.021869610223740173,-0.030505339125720378,0.039269908169872414,-19.969047265452676,54.15291250302348,-95.6875
1772747637.2379372,87.35134568128883,2.2586880711924446,-6.435528401177497,-0.3423538394944878,-1.0223410000187205,9.828167034049612,0.021869610223740173,-0.030505339125720378,0.039269908169872414,-19.969047265452676,54.15291250302348,-95.6875
1772747637.2823706,87.35342247457338,2.307980625910209,-6.446274279704377,-0.3710392151175688,-1.0452228681884312,9.795329064562393,0.002147569199733308,0.01963871216842075,-0.014180800172453928,-20.968286196034484,53.713677019928454,-95.25
1772747637.3192656,87.17987041559722,2.3081272049588795,-6.45005194290179,-0.39016385770069256,-1.0403798558526773,9.85710355537579,0.007588458028890951,0.027283985326120416,-0.06981317007977318,-20.968286196034484,53.713677019928454,-95.25
1772747637.3419993,86.86098571189814,2.413636902351839,-6.475114794368324,-0.38282045370802503,-1.0371220397006211,9.878143118701912,-0.014281152194849225,0.05778932445184079,-0.11562806294462433,-19.969589809968216,54.465412032055845,-95.0
1772747637.3814335,86.56458329836543,2.454577697783727,-6.542754687697227,-0.3712432870502754,-1.03494238426275,9.892144713068124,-0.021882867087128874,0.038141143095285254,-0.1341721862470641,-19.969589809968216,54.465412032055845,-95.0
1772747637.4237287,86.34467560352174,2.4762420369289555,-6.563564396406936,-0.3701070658976782,-1.1037507030822442,9.8011092664912,-0.012038891113768055,0.022886579694798112,-0.12980886311707826,-21.344587737710615,54.46302483618747,-96.5
1772747637.448434,86.34467560352174,2.4762420369289555,-6.563564396406936,-0.3701070658976782,-1.1037507030822442,9.8011092664912,-0.012038891113768055,0.022886579694798112,-0.12980886311707826,-21.344587737710615,54.46302483618747,-96.5
1772747637.500624,86.06342660383206,2.460720391395007,-6.549615177054163,-0.3759714456596639,-1.1896947657891623,9.737181082019505,0.043610439488847255,0.013165703167189513,-0.12871803233458182,-21.344587737710615,54.46302483618747,-96.5
1772747637.5321789,85.77472971490823,2.3542506714465157,-6.438131523389364,-0.37987412488185107,-1.2468895794625303,9.694637589378205,0.03168896630795055,-0.031579123725587036,-0.06544984694978735,-20.280787232163284,53.71487061786264,-95.6875
1772747637.5611253,85.82611957145743,2.1948364846314794,-6.5401313979181666,-0.29551015617555193,-1.2781108783711101,9.713156934169843,-0.04571445042316055,-0.05789348552132344,0.17016960206944712,-20.280787232163284,53.71487061786264,-95.6875
1772747637.593797,85.82611957145743,2.1948364846314794,-6.5401313979181666,-0.29551015617555193,-1.2781108783711101,9.713156934169843,-0.04571445042316055,-0.05789348552132344,0.17016960206944712,-20.280787232163284,53.71487061786264,-95.6875
1772747637.611678,86.00959160005984,1.9771115671584667,-6.681745128521659,-0.23938430018009196,-1.2888529840322691,9.732171574668682,-0.040228109490955934,-0.07642811168784622,0.05781403147231216,-19.968287703130922,53.71541316237818,-95.6875
1772747637.628951,86.06171707541542,1.9303312923610352,-6.689077365197629,-0.2556245677218303,-1.2559533768085724,9.744825605513206,0.005526111522370716,-0.04144203807521742,0.04581489286485115,-19.968287703130922,53.71541316237818,-95.6875
1772747637.6524372,86.06171707541542,1.9303312923610352,-6.689077365197629,-0.2556245677218303,-1.2559533768085724,9.744825605513206,0.005526111522370716,-0.04144203807521742,0.04581489286485115,-19.968287703130922,53.71541316237818,-95.6875
1772747637.7037132,86.08248239803972,1.9114071901155618,-6.697945484761927,-0.26636259326997214,-1.2742003357048568,9.76997228022205,0.006546868668682569,-0.0010794661127475254,0.004363323129985824,-20.969588302871777,54.46367588960612,-96.5
1772747637.7181787,86.08284614326956,1.9066516786784076,-6.69283150679659,-0.270198368197347,-1.2662670354325327,9.790052223041341,0.010896928359330942,0.006563913207325184,-0.004363323129985824,-20.969588302871777,54.46367588960612,-96.5
1772747637.753366,86.08459494922141,1.8770514660367894,-6.691764577800869,-0.2912276054923451,-1.2273971272933426,9.812308113024153,0.008749359159597635,-0.013074798961095566,-0.00545415391248228,-20.97023935629042,54.83867532444496,-96.5
1772747637.7981682,86.08459494922141,1.8770514660367894,-6.691764577800869,-0.2912276054923451,-1.2273971272933426,9.812308113024153,0.008749359159597635,-0.013074798961095566,-0.00545415391248228,-20.97023935629042,54.83867532444496,-96.5
1772747637.8199015,86.11106080816674,1.848484318027638,-6.699931267998664,-0.3035235577144246,-1.2050431010197147,9.811536023434263,-0.0010794661127475256,-0.006546868668682569,0.018544123302439753,-20.97023935629042,54.83867532444496,-96.5
1772747637.8496299,86.13102646649337,1.844541573423086,-6.704412989700991,-0.27822627195212707,-1.2068342036706763,9.800986871315038,-0.0010889353008823115,-0.0010927229761362259,0.017453292519943295,-20.97023935629042,54.83867532444496,-96.5
1772747637.8810828,86.13578687520852,1.8449027300778928,-6.7046354158278305,-0.2613912108665161,-1.2080261624769637,9.793966528421445,0.0032838504412895492,-0.006539293318174741,0.008726646259971648,-21.094045569969182,54.15095934276754,-96.5625
1772747637.8989568,86.13600950789832,1.839793843324963,-6.70939603110596,-0.26023460095260526,-1.2021466071869713,9.789294568648126,0.0011002983266440547,-0.005452251854919386,-0.009817477042468103,-21.094045569969182,54.15095934276754,-96.5625
1772747637.9139967,86.13147217545108,1.8343238958131363,-6.713933363553193,-0.25946488997507683,-1.1982338288204175,9.786185431608192,0.002196808978034195,-0.008722845432820234,-0.008726646259971648,-21.094045569969182,54.15095934276754,-96.5625
1772747637.9286036,86.13147217545108,1.8343238958131363,-6.713933363553193,-0.25946488997507683,-1.1982338288204175,9.786185431608192,0.002196808978034195,-0.008722845432820234,-0.008726646259971648,-21.094045569969182,54.15095934276754,-96.5625
1772747637.9470522,86.12703243215742,1.8187731910571323,-6.72857501747902,-0.23217437981915667,-1.2056187778003413,9.780771223932135,0.004367104229290989,-0.0021740829265107084,0.0,-20.968286196034484,53.713677019928454,-96.875
1772747637.980879,86.1272572421269,1.8136640917245306,-6.733335128237585,-0.2140128501653652,-1.2105333788511952,9.77716812920438,0.006546868668682569,-0.0010794661127475254,0.006544984694978736,-20.968286196034484,53.713677019928454,-96.875
1772747638.0270665,86.13735419308723,1.8091412833145137,-6.73795951118955,-0.21865208838791358,-1.2138330289030181,9.774770309912265,0.005473084068815915,-0.0108988221969579,0.008726646259971648,-22.094044062872744,54.14922320031782,-96.875
1772747638.0434852,86.13757978872222,1.8040326507456967,-6.742720056314427,-0.22173944960133293,-1.216028909153,9.773174587958758,0.004370891904544903,-0.004355741203529245,-0.00545415391248228,-22.094044062872744,54.14922320031782,-96.875
1772747638.0761988,86.13816668702201,1.794165838976964,-6.74236949984135,-0.21375292641260454,-1.2208179268243846,9.772112652824083,0.012004802036482826,-0.0032516552016312768,0.0,-22.094044062872744,54.14922320031782,-96.875
1772747638.1033075,86.13816668702201,1.794165838976964,-6.74236949984135,-0.21375292641260454,-1.2208179268243846,9.772112652824083,0.012004802036482826,-0.0032516552016312768,0.0,-22.094044062872744,54.14922320031782,-96.875
1772747638.1341987,86.13385958250511,1.7835883443397487,-6.751663592042321,-0.20843798444581543,-1.2240049645878581,9.761370611732591,0.004365210391664032,-0.0010832537880014399,-0.004363323129985824,-21.344587737710615,54.46302483618747,-97.25
1772747638.1554236,86.13421992592026,1.7788304802804278,-6.746552642938633,-0.20155584327279583,-1.226120095027471,9.784327908748539,0.014190247988755279,-0.0054295258033958994,-0.003272492347489368,-21.344587737710615,54.46302483618747,-97.25
1772747638.2043219,86.13457984614011,1.7740725529890584,-6.741441703503789,-0.2237425161184472,-1.2242290447650381,9.772844839804286,-0.004357635041156203,-0.003280062766035635,-0.00545415391248228,-21.34328563087332,53.713025966509804,-97.0
1772747638.2311027,86.12005222086006,1.7630406200572524,-6.751453531099911,-0.19167600573306498,-1.2228892656737265,9.76520298569617,-1.8938376269572007e-06,0.0010908291385092687,-0.014180800172453928,-21.34328563087332,53.713025966509804,-97.0
1772747638.2876844,86.11063773884484,1.752234151852381,-6.761103688269373,-0.21047738126894616,-1.2220673487399814,9.760117417152324,0.0065411871558016975,0.0021930213027802803,-0.006544984694978736,-22.094044062872744,54.14922320031782,-96.0625
1772747638.3590436,86.12096741431843,1.7426040032701018,-6.77049240059162,-0.22573524277150042,-1.2267179307338774,9.782336985890954,-0.001094616813763183,0.0021797644393915802,-0.00545415391248228,-20.968286196034484,53.713677019928454,-96.875
1772747638.4007607,86.12096741431843,1.7426040032701018,-6.77049240059162,-0.22573524277150042,-1.2267179307338774,9.782336985890954,-0.001094616813763183,0.0021797644393915802,-0.00545415391248228,-20.968286196034484,53.713677019928454,-96.875
1772747638.4415107,86.10204476530727,1.7264499486771694,-6.775157329030776,-0.20130289360213502,-1.2220331757031648,9.77991601628546,0.00327627509078172,-0.0021759767641376655,0.009817477042468103,-20.967635142615837,53.33867758508961,-97.0
1772747638.4715896,86.10204476530727,1.7264499486771694,-6.775157329030776,-0.20130289360213502,-1.2220331757031648,9.77991601628546,0.00327627509078172,-0.0021759767641376655,0.009817477042468103,-20.967635142615837,53.33867758508961,-97.0
1772747638.5041823,86.12178676766278,1.727628382271023,-6.774900442137621,-0.19682494279181612,-1.2147725715532927,9.773253886361495,-0.005454145692546343,-9.469188134786003e-06,0.008726646259971648,-20.967635142615837,53.33867758508961,-97.0
1772747638.5411184,86.1123776229052,1.7168204451070073,-6.784547472070127,-0.19718421562501634,-1.213291634854163,9.768820313317963,3.787675253914401e-05,-0.02181658277018537,-0.006544984694978736,-22.091439849198157,52.64922546096248,-96.0625
1772747638.5838697,86.10286542190681,1.7114737309065398,-6.779562946507964,-0.19740588491086813,-1.2223414080217792,9.719038256081278,0.011993439010721082,0.0032933196294243354,0.003272492347489368,-22.091439849198157,52.64922546096248,-96.0625
1772747638.638862,86.09299459264938,1.710884151861424,-6.779689935876816,-0.20758872334213466,-1.22838135374354,9.736085528702072,0.009825037597091246,-0.00434627201539446,-0.014180800172453928,-22.46904349771158,54.14857214689918,-97.25
1772747638.6754699,86.09299459264938,1.710884151861424,-6.779689935876816,-0.20758872334213466,-1.22838135374354,9.736085528702072,0.009825037597091246,-0.00434627201539446,-0.014180800172453928,-22.46904349771158,54.14857214689918,-97.25
1772747638.732491,86.08918385857793,1.6959040248372976,-6.7739918374300885,-0.187794086157732,-1.1793093066379148,9.754980115572652,1.8938376269572007e-06,-0.0010908291385092687,-0.003272492347489368,-20.969045758356238,54.15117636057376,-97.6875
1772747638.7535918,86.0843034396683,1.6905618125485056,-6.779107343799957,-0.19118008900674613,-1.1863461215376914,9.753314211282063,-0.0010889353008823115,-0.0010927229761362259,0.001090830782496456,-20.969045758356238,54.15117636057376,-97.6875
1772747638.7863097,86.08453595189341,1.6854513883895204,-6.7838653705928795,-0.1967785427445483,-1.191034850837554,9.752205570586048,0.002175976764137666,0.0032762750907817206,0.001090830782496456,-20.967635142615837,53.33867758508961,-96.875
1772747638.832277,86.08476888723465,1.680341002014734,-6.788623388471532,-0.1971939900449211,-1.1740787002241595,9.758158006001816,1.8938376269572007e-06,-0.0010908291385092687,-0.00545415391248228,-20.967635142615837,53.33867758508961,-96.875
1772747638.8531601,86.08476888723465,1.680341002014734,-6.788623388471532,-0.1971939900449211,-1.1740787002241595,9.758158006001816,1.8938376269572007e-06,-0.0010908291385092687,-0.00545415391248228,-20.967635142615837,53.33867758508961,-96.875
1772747638.8730226,86.08500224568445,1.6752306534971537,-6.793381397476105,-0.20750578558020907,-1.1628119941748614,9.762119285277949,0.0,0.0,0.002181661564992912,-21.779482864681334,52.96226753451038,-95.6875
1772747638.8950047,86.08500224568445,1.6752306534971537,-6.793381397476105,-0.20750578558020907,-1.1628119941748614,9.762119285277949,0.0,0.0,0.002181661564992912,-21.779482864681334,52.96226753451038,-95.6875
1772747638.9313438,86.08500224568445,1.6752306534971537,-6.793381397476105,-0.20764311144420775,-1.1753731519710189,9.761410360678507,0.001094616813763183,-0.0021797644393915802,-0.003272492347489368,-21.779482864681334,52.96226753451038,-95.6875
1772747638.9545152,86.08500224568445,1.6752306534971537,-6.793381397476105,-0.21442471360449536,-1.1837440773479033,9.760938579276786,1.8938376269572007e-06,-0.0010908291385092687,0.0,-21.34328563087332,53.713025966509804,-96.5
1772747639.0065167,86.08500224568445,1.6752306534971537,-6.793381397476105,-0.21636415335798329,-1.1963575456387585,9.760415673655631,0.0021797644393915802,0.001094616813763183,0.0,-21.344045193195075,54.150525307155114,-97.25
1772747639.0454643,86.08500224568445,1.6752306534971537,-6.793381397476105,-0.21687755532134392,-1.2010482559982267,9.760276626174443,0.001094616813763183,-0.0021797644393915802,-0.001090830782496456,-21.344045193195075,54.150525307155114,-97.25
1772747639.0945337,86.08500224568445,1.6752306534971537,-6.793381397476105,-0.2138857271078396,-1.1974738504215239,9.770219426750934,-0.0010889353008823115,-0.0010927229761362259,-0.001090830782496456,-21.344045193195075,54.150525307155114,-97.25
1772747639.1201248,86.08500224568445,1.6752306534971537,-6.793381397476105,-0.2185849121844903,-1.195106738619823,9.776836249466228,3.7876752539144014e-06,-0.0021816582770185374,0.002181661564992912,-21.778940320165795,52.649768005478016,-97.0
1772747639.1391864,86.08500224568445,1.6752306534971537,-6.793381397476105,-0.2185849121844903,-1.195106738619823,9.776836249466228,3.7876752539144014e-06,-0.0021816582770185374,0.002181661564992912,-21.778940320165795,52.649768005478016,-97.0
1772747639.1721134,86.08500224568445,1.6752306534971537,-6.793381397476105,-0.21502195402783764,-1.1935198369772941,9.777894559361185,0.0010870414632553544,0.0021835521146454945,-0.001090830782496456,-21.778940320165795,52.649768005478016,-97.0
1772747639.203385,86.08500224568445,1.6752306534971537,-6.793381397476105,-0.21266246035630407,-1.185773558329217,9.77859885277418,3.7876752539144014e-06,-0.0021816582770185374,-0.001090830782496456,-20.96644154468165,52.65117862121841,-97.25
1772747639.2455513,86.08500224568445,1.6752306534971537,-6.793381397476105,-0.21109224367516977,-1.1806184964205242,9.779067552173057,0.0010908291385092687,1.8938376269572007e-06,0.0,-20.96644154468165,52.65117862121841,-97.25
1772747639.2759755,86.08500224568445,1.6752306534971537,-6.793381397476105,-0.213392388680258,-1.1771936678965378,9.779379466387294,3.7876752539144014e-06,-0.0021816582770185374,-0.003272492347489368,-20.96698408919719,52.96367815025078,-97.25
1772747639.3108413,86.08500224568445,1.6752306534971537,-6.793381397476105,-0.213392388680258,-1.1771936678965378,9.779379466387294,3.7876752539144014e-06,-0.0021816582770185374,-0.003272492347489368,-20.96698408919719,52.96367815025078,-97.25
1772747639.3266077,86.08500224568445,1.6752306534971537,-6.793381397476105,-0.2149056867155385,-1.1849498027694068,9.77624193010524,-0.0010889353008823115,-0.0010927229761362259,-0.001090830782496456,-20.96698408919719,52.96367815025078,-97.25
1772747639.3579924,86.08500224568445,1.6752306534971537,-6.793381397476105,-0.2149056867155385,-1.1849498027694068,9.77624193010524,-0.0010889353008823115,-0.0010927229761362259,-0.001090830782496456,-20.96698408919719,52.96367815025078,-97.25
1772747639.3863232,86.08500224568445,1.6752306534971537,-6.793381397476105,-0.215912769653371,-1.1901114238855974,9.77415393475811,0.0010908291385092687,1.8938376269572007e-06,-0.002181661564992912,-21.342634577454675,53.33802653167097,-97.6875
1772747639.417344,86.08500224568445,1.6752306534971537,-6.793381397476105,-0.21658297209864497,-1.1935464250793364,9.77276439717903,0.0010870414632553544,0.0021835521146454945,-0.003272492347489368,-21.342634577454675,53.33802653167097,-97.6875
1772747639.4385705,86.08500224568445,1.6752306534971537,-6.793381397476105,-0.22037989859567053,-1.1924930809268128,9.771839675442305,0.0021797644393915802,0.001094616813763183,0.002181661564992912,-21.779482864681334,52.96226753451038,-98.0625
1772747639.4640448,86.08500224568445,1.6752306534971537,-6.793381397476105,-0.22037989859567053,-1.1924930809268128,9.771839675442305,0.0021797644393915802,0.001094616813763183,0.002181661564992912,-21.779482864681334,52.96226753451038,-98.0625
1772747639.4990232,86.08500224568445,1.6752306534971537,-6.793381397476105,-0.22290671076499294,-1.1917920921599336,9.774569395163653,-1.8938376269572007e-06,0.0010908291385092687,-0.001090830782496456,-21.779482864681334,52.96226753451038,-98.0625
1772747639.5243616,86.08500224568445,1.6752306534971537,-6.793381397476105,-0.22124316937142216,-1.1913197843756989,9.773040881437922,-0.0010927229761362259,0.0010889353008823113,-0.001090830782496456,-21.342634577454675,53.33802653167097,-96.875
1772747639.5514407,86.08500224568445,1.6752306534971537,-6.793381397476105,-0.2201361011569758,-1.1910054688213143,9.768678560920746,1.8938376269572007e-06,-0.0010908291385092687,0.002181661564992912,-21.342634577454675,53.33802653167097,-96.875
1772747639.580439,86.08500224568445,1.6752306534971537,-6.793381397476105,-0.2201361011569758,-1.1910054688213143,9.768678560920746,1.8938376269572007e-06,-0.0010908291385092687,0.002181661564992912,-21.342634577454675,53.33802653167097,-96.875
1772747639.5956397,86.08500224568445,1.6752306534971537,-6.793381397476105,-0.21939935962702398,-1.1907962953310063,9.765775485346879,5.681512880871602e-06,-0.003272487415527806,0.001090830782496456,-22.091439849198157,52.64922546096248,-96.5
1772747639.617067,86.08500224568445,1.6752306534971537,-6.793381397476105,-0.21890906636878318,-1.190657092709827,9.763843520981949,-1.8938376269572007e-06,0.0010908291385092687,-0.001090830782496456,-22.091439849198157,52.64922546096248,-96.5
1772747639.6331224,86.08500224568445,1.6752306534971537,-6.793381397476105,-0.21890906636878318,-1.190657092709827,9.763843520981949,-1.8938376269572007e-06,0.0010908291385092687,-0.001090830782496456,-22.091439849198157,52.64922546096248,-96.5
1772747639.66285,86.08500224568445,1.6752306534971537,-6.793381397476105,-0.21858858927279265,-1.1872193482545141,9.765902931985863,0.0,0.0,0.0,-20.967635142615837,53.33867758508961,-98.0625
1772747639.6801717,86.08500224568445,1.6752306534971537,-6.793381397476105,-0.22172042201128814,-1.1849373753120593,9.76727344700384,0.0010908291385092687,1.8938376269572007e-06,0.0,-20.967635142615837,53.33867758508961,-98.0625
1772747639.7018063,86.08500224568445,1.6752306534971537,-6.793381397476105,-0.22381042930432704,-1.1800736411442503,9.771530621145967,0.0010908291385092687,1.8938376269572007e-06,0.001090830782496456,-20.967635142615837,53.33867758508961,-98.0625
1772747639.7146468,86.08500224568445,1.6752306534971537,-6.793381397476105,-0.22381042930432704,-1.1800736411442503,9.771530621145967,0.0010908291385092687,1.8938376269572007e-06,0.001090830782496456,-20.967635142615837,53.33867758508961,-98.0625
1772747639.7314818,86.08500224568445,1.6752306534971537,-6.793381397476105,-0.2251896906300649,-1.1835270937188707,9.771018611274481,0.0010889353008823115,0.0010927229761362259,-0.002181661564992912,-22.468283935389827,53.71107280625387,-97.0
1772747639.752983,86.08500224568445,1.6752306534971537,-6.793381397476105,-0.22277408214993974,-1.179129306907427,9.767332762717215,-0.0010908291385092687,-1.8938376269572007e-06,0.001090830782496456,-22.468283935389827,53.71107280625387,-97.0
1772747639.7683692,86.08500224568445,1.6752306534971537,-6.793381397476105,-0.22277408214993974,-1.179129306907427,9.767332762717215,-0.0010908291385092687,-1.8938376269572007e-06,0.001090830782496456,-22.468283935389827,53.71107280625387,-97.0
1772747639.7934248,86.08500224568445,1.6752306534971537,-6.793381397476105,-0.22450582076601056,-1.179553543167256,9.761534759968661,1.8938376269572007e-06,-0.0010908291385092687,-0.001090830782496456,-22.468283935389827,53.71107280625387,-97.0
1772747639.8142972,86.08500224568445,1.6752306534971537,-6.793381397476105,-0.22231316680430438,-1.1798300600687088,9.757676253907432,-1.8938376269572007e-06,0.0010908291385092687,0.0,-22.466981828552534,52.96107393657619,-97.0
1772747639.8420756,86.08500224568445,1.6752306534971537,-6.793381397476105,-0.22231316680430438,-1.1798300600687088,9.757676253907432,-1.8938376269572007e-06,0.0010908291385092687,0.0,-22.466981828552534,52.96107393657619,-97.0
1772747639.9038334,86.08500224568445,1.6752306534971537,-6.793381397476105,-0.21415795916407754,-1.1833475704627743,9.76179868464066,-0.0010908291385092687,-1.8938376269572007e-06,0.001090830782496456,-22.466981828552534,52.96107393657619,-97.0
1772747639.9528472,86.08500224568445,1.6752306534971537,-6.793381397476105,-0.208730759579145,-1.1856884343368592,9.764542116243055,0.0010927229761362259,-0.0010889353008823113,-0.002181661564992912,-21.780784971518628,53.71226640418805,-98.5
1772747639.9867644,86.08500224568445,1.6752306534971537,-6.793381397476105,-0.21180342462255689,-1.1906029749426816,9.766367839328309,0.0010870414632553544,0.0021835521146454945,0.001090830782496456,-21.780784971518628,53.71226640418805,-98.5
1772747640.0462954,86.08500224568445,1.6752306534971537,-6.793381397476105,-0.21719335555094338,-1.1938793544072752,9.767582837646883,-0.001094616813763183,0.0021797644393915802,0.0,-21.342634577454675,53.33802653167097,-97.25
1772747640.1295557,86.08500224568445,1.6752306534971537,-6.793381397476105,-0.2207861019647452,-1.192714641675492,9.765046293748153,0.0,0.0,-0.003272492347489368,-21.78013391809998,53.337266969349216,-97.25
1772747640.2013326,86.08500224568445,1.6752306534971537,-6.793381397476105,-0.2231770345695232,-1.1919395383631837,9.763358252118602,-3.7876752539144014e-06,0.0021816582770185374,0.0,-21.78013391809998,53.337266969349216,-97.25
1772747640.2542686,86.08500224568445,1.6752306534971537,-6.793381397476105,-0.2247623659191016,-1.1947688224332274,9.762234879270796,0.0010908291385092687,1.8938376269572007e-06,0.0,-21.780784971518628,53.71226640418805,-96.875
1772747640.3140938,86.08500224568445,1.6752306534971537,-6.793381397476105,-0.22581738622293449,-1.1966516793766675,9.764832398896797,0.0010889353008823115,0.0010927229761362259,-0.001090830782496456,-21.780784971518628,53.71226640418805,-96.875
1772747640.3885005,86.08500224568445,1.6752306534971537,-6.793381397476105,-0.2231859989647411,-1.1912086787173757,9.766561019191705,0.0010927229761362259,-0.0010889353008823113,0.0,-22.092633447132343,53.336724424833676,-97.25
1772747640.4563544,86.08500224568445,1.6752306534971537,-6.793381397476105,-0.2231859989647411,-1.1912086787173757,9.766561019191705,0.0010927229761362259,-0.0010889353008823113,0.0,-22.092633447132343,53.336724424833676,-97.25
1772747640.4931564,86.08500224568445,1.6752306534971537,-6.793381397476105,-0.21808973347302166,-1.1875806149904842,9.767711396688012,1.8938376269572007e-06,-0.0010908291385092687,0.0,-22.092633447132343,53.336724424833676,-97.25
1772747640.5159636,86.08500224568445,1.6752306534971537,-6.793381397476105,-0.21808973347302166,-1.1875806149904842,9.767711396688012,1.8938376269572007e-06,-0.0010908291385092687,0.0,-22.092633447132343,53.336724424833676,-97.25
1772747640.5333595,86.08500224568445,1.6752306534971537,-6.793381397476105,-0.21468661053642976,-1.1918563924401921,9.775167183475885,0.0010908291385092687,1.8938376269572007e-06,0.001090830782496456,-21.342634577454675,53.33802653167097,-97.75
1772747640.553584,86.08500224568445,1.6752306534971537,-6.793381397476105,-0.21468661053642976,-1.1918563924401921,9.775167183475885,0.0010908291385092687,1.8938376269572007e-06,0.001090830782496456,-21.342634577454675,53.33802653167097,-97.75
1772747640.5860975,86.08500224568445,1.6752306534971537,-6.793381397476105,-0.21426562512371986,-1.1932562120648054,9.787883179665268,-1.8938376269572007e-06,0.0010908291385092687,0.0,-21.779482864681334,52.96226753451038,-97.25
1772747640.623009,86.08500224568445,1.6752306534971537,-6.793381397476105,-0.21426562512371986,-1.1932562120648054,9.787883179665268,-1.8938376269572007e-06,0.0010908291385092687,0.0,-21.779482864681334,52.96226753451038,-97.25
1772747640.6579118,86.08500224568445,1.6752306534971537,-6.793381397476105,-0.21549262340440628,-1.1922941398171,9.78524616800635,-1.8938376269572007e-06,0.0010908291385092687,-0.001090830782496456,-21.779482864681334,52.96226753451038,-97.25
1772747640.688419,86.08500224568445,1.6752306534971537,-6.793381397476105,-0.21296987797825492,-1.188302977226956,9.78014615449737,1.8938376269572007e-06,-0.0010908291385092687,0.0,-21.780784971518628,53.71226640418805,-97.25
1772747640.7280016,86.08500224568445,1.6752306534971537,-6.793381397476105,-0.21129101907806408,-1.1856469031074222,9.770061929063388,0.0,0.0,0.0,-21.780784971518628,53.71226640418805,-97.25
1772747640.7508068,86.08500224568445,1.6752306534971537,-6.793381397476105,-0.21129101907806408,-1.1856469031074222,9.770061929063388,0.0,0.0,0.0,-21.780784971518628,53.71226640418805,-97.25
1772747640.7967243,86.08500224568445,1.6752306534971537,-6.793381397476105,-0.2101737572340698,-1.1838793154511646,9.763350989685254,3.7876752539144014e-06,-0.0021816582770185374,-0.001090830782496456,-22.84143871887583,52.64792335412518,-97.6875
1772747640.827013,86.08500224568445,1.6752306534971537,-6.793381397476105,-0.21612044528935112,-1.1827146207920414,9.765575157909849,1.8938376269572007e-06,-0.0010908291385092687,0.0,-22.84143871887583,52.64792335412518,-97.6875
1772747640.8519201,86.08500224568445,1.6752306534971537,-6.793381397476105,-0.21672698550493502,-1.1852788285823659,9.767055317017729,-0.0021835521146454945,0.0010870414632553542,0.0,-22.841981263391368,52.96042288315755,-97.25
1772747640.876784,86.08500224568445,1.6752306534971537,-6.793381397476105,-0.21712482365247385,-1.1903303868886626,9.768040346369563,-0.0010870414632553544,-0.0021835521146454945,0.0,-22.841981263391368,52.96042288315755,-97.25
1772747640.9464653,86.08500224568445,1.6752306534971537,-6.793381397476105,-0.2175657732170355,-1.1959293533258923,9.765787005942746,0.0010889353008823115,0.0010927229761362259,0.0,-21.78013391809998,53.337266969349216,-98.0625
1772747640.99818,86.08500224568445,1.6752306534971537,-6.793381397476105,-0.2175657732170355,-1.1959293533258923,9.765787005942746,0.0010889353008823115,0.0010927229761362259,0.0,-21.78013391809998,53.337266969349216,-98.0625
1772747641.02194,86.08500224568445,1.6752306534971537,-6.793381397476105,-0.21434953601995882,-1.1907221712090614,9.763851187809806,0.002187339789899409,-0.0032686997402738916,-0.001090830782496456,-20.280787232163284,53.71487061786264,-98.0625
1772747641.0511544,0.1707475526010271,-1.106926700547443,-8.355866840366277,-0.21220916609302787,-1.187256849678346,9.76256292246684,0.0010889353008823115,0.0010927229761362259,0.0,-20.280787232163284,53.71487061786264,-98.0625
1772747641.0765285,0.1707475526010271,-1.106926700547443,-8.355866840366277,-0.21220916609302787,-1.187256849678346,9.76256292246684,0.0010889353008823115,0.0010927229761362259,0.0,-20.280787232163284,53.71487061786264,-98.0625
1772747641.1105232,86.08500224568445,1.6752306534971537,-6.793381397476105,-0.21318196333331227,-1.1834218189040124,9.757789943558913,5.681512880871602e-06,-0.003272487415527806,-0.002181661564992912,-22.09328450055099,53.71172385967251,-96.875
1772747641.1596873,86.08500224568445,1.6752306534971537,-6.793381397476105,-0.21477145858818542,-1.185749461025962,9.755184120419086,0.0010908291385092687,1.8938376269572007e-06,-0.001090830782496456,-21.344045193195075,54.150525307155114,-97.6875
1772747641.2072968,86.08500224568445,1.6752306534971537,-6.793381397476105,-0.21917435659039153,-1.1873042884470875,9.753449974228483,-0.0010908291385092687,-1.8938376269572007e-06,0.001090830782496456,-21.344045193195075,54.150525307155114,-97.6875
1772747641.2583444,86.08500224568445,1.6752306534971537,-6.793381397476105,-0.22210443602726634,-1.1883390087272863,9.755641031017637,1.8938376269572007e-06,-0.0010908291385092687,0.0,-21.342634577454675,53.33802653167097,-98.0625
1772747641.3010325,86.08500224568445,1.6752306534971537,-6.793381397476105,-0.22406017875180875,-1.185682496849262,9.757099154835112,0.0010870414632553544,0.0021835521146454945,-0.001090830782496456,-21.342634577454675,53.33802653167097,-98.0625
1772747641.3183908,86.08500224568445,1.6752306534971537,-6.793381397476105,-0.225361703687914,-1.1839146178696192,9.76141463165465,-0.0010870414632553544,-0.0021835521146454945,0.001090830782496456,-22.094044062872744,54.14922320031782,-97.25
1772747641.3426356,86.08500224568445,1.6752306534971537,-6.793381397476105,-0.225361703687914,-1.1839146178696192,9.76141463165465,-0.0010870414632553544,-0.0021835521146454945,0.001090830782496456,-22.094044062872744,54.14922320031782,-97.25
1772747641.3804228,86.08500224568445,1.6752306534971537,-6.793381397476105,-0.2228827473279924,-1.1827323065667348,9.764286533271019,-0.0021797644393915802,-0.001094616813763183,0.0,-22.094044062872744,54.14922320031782,-97.25
1772747641.401827,86.08500224568445,1.6752306534971537,-6.793381397476105,-0.22122722197178746,-1.1852905982678614,9.766197751715469,1.8938376269572007e-06,-0.0010908291385092687,-0.002181661564992912,-20.968286196034484,53.713677019928454,-97.75
1772747641.422383,86.08500224568445,1.6752306534971537,-6.793381397476105,-0.22012548834066303,-1.1869931128169704,9.76746964624054,0.0021816582770185374,3.7876752539144014e-06,0.0,-20.968286196034484,53.713677019928454,-97.75
1772747641.4684155,86.08500224568445,1.6752306534971537,-6.793381397476105,-0.22273740358223423,-1.188131924821503,9.768316077838984,-0.0021835521146454945,0.0010870414632553542,-0.001090830782496456,-20.968286196034484,53.713677019928454,-97.75
1772747641.4980004,86.08500224568445,1.6752306534971537,-6.793381397476105,-0.2211304973325814,-1.1888839838987215,9.768879368612486,-0.0010870414632553544,-0.0021835521146454945,0.0,-21.781544533840382,54.14976574483336,-96.875
1772747641.5199244,86.08500224568445,1.6752306534971537,-6.793381397476105,-0.2211304973325814,-1.1888839838987215,9.768879368612486,-0.0010870414632553544,-0.0021835521146454945,0.0,-21.781544533840382,54.14976574483336,-96.875
1772747641.5457928,86.08500224568445,1.6752306534971537,-6.793381397476105,-0.22157559107367067,-1.1897214041511388,9.769503699946307,-0.001085147625628397,-0.0032743812531547635,0.0,-21.781544533840382,54.14976574483336,-96.875
1772747641.587823,86.08500224568445,1.6752306534971537,-6.793381397476105,-0.22157559107367067,-1.1897214041511388,9.769503699946307,-0.001085147625628397,-0.0032743812531547635,0.0,-21.781544533840382,54.14976574483336,-96.875
1772747641.629417,86.08500224568445,1.6752306534971537,-6.793381397476105,-0.21954658101535268,-1.190088412078664,9.769780200924194,-0.0010927229761362259,0.0010889353008823113,-0.001090830782496456,-22.09328450055099,53.71172385967251,-96.875
1772747641.6573887,86.08500224568445,1.6752306534971537,-6.793381397476105,-0.21954658101535268,-1.190088412078664,9.769780200924194,-0.0010927229761362259,0.0010889353008823113,-0.001090830782496456,-22.09328450055099,53.71172385967251,-96.875
1772747641.7078092,86.08500224568445,1.6752306534971537,-6.793381397476105,-0.22235795481449286,-1.186846705237488,9.776543949585006,-0.0010908291385092687,-1.8938376269572007e-06,0.0,-21.779482864681334,52.96226753451038,-97.25
1772747641.739107,86.08500224568445,1.6752306534971537,-6.793381397476105,-0.2242288926727176,-1.1846893855469236,9.777700037055434,-0.0010927229761362259,0.0010889353008823113,-0.001090830782496456,-21.779482864681334,52.96226753451038,-97.25
1772747641.7647,86.08500224568445,1.6752306534971537,-6.793381397476105,-0.22212887425170738,-1.183247905801259,9.77846940035266,0.001085147625628397,0.0032743812531547635,-0.001090830782496456,-21.78013391809998,53.337266969349216,-96.5
1772747641.797455,86.08500224568445,1.6752306534971537,-6.793381397476105,-0.21738042119492038,-1.1856279162083823,9.775636291325295,3.7876752539144014e-06,-0.0021816582770185374,0.0,-21.78013391809998,53.337266969349216,-96.5
1772747641.8221107,86.08500224568445,1.6752306534971537,-6.793381397476105,-0.21738042119492038,-1.1856279162083823,9.775636291325295,3.7876752539144014e-06,-0.0021816582770185374,0.0,-21.78013391809998,53.337266969349216,-96.5
1772747641.8385017,86.08500224568445,1.6752306534971537,-6.793381397476105,-0.2175654853952383,-1.1872175941382987,9.773750888915485,1.8938376269572007e-06,-0.0010908291385092687,-0.001090830782496456,-21.78013391809998,53.337266969349216,-96.5
1772747641.876602,86.08500224568445,1.6752306534971537,-6.793381397476105,-0.2176944511436814,-1.1849304003768786,9.77249617467308,3.7876752539144014e-06,-0.0021816582770185374,0.0,-22.09328450055099,53.71172385967251,-97.6875
1772747641.9026012,86.08500224568445,1.6752306534971537,-6.793381397476105,-0.2176944511436814,-1.1849304003768786,9.77249617467308,3.7876752539144014e-06,-0.0021816582770185374,0.0,-22.09328450055099,53.71172385967251,-97.6875
1772747641.9359775,86.08500224568445,1.6752306534971537,-6.793381397476105,-0.21778027640862851,-1.1834082984782819,9.771661176360837,-3.7876752539144014e-06,0.0021816582770185374,0.0,-22.09328450055099,53.71172385967251,-97.6875
1772747641.977824,86.08500224568445,1.6752306534971537,-6.793381397476105,-0.21783739216371978,-1.182395356667758,9.77110549431158,-0.0021797644393915802,-0.001094616813763183,0.001090830782496456,-20.65394201564929,52.65172116573395,-97.6875
1772747642.0246496,86.08500224568445,1.6752306534971537,-6.793381397476105,-0.21787540206070824,-1.181721255208156,9.767390582407856,-0.001094616813763183,0.0021797644393915802,0.0,-20.65394201564929,52.65172116573395,-97.6875
1772747642.0423043,86.08500224568445,1.6752306534971537,-6.793381397476105,-0.21455559055664222,-1.1812668406265632,9.764918350034213,-1.8938376269572007e-06,0.0010908291385092687,0.0,-20.65394201564929,52.65172116573395,-97.6875
1772747642.061575,86.08500224568445,1.6752306534971537,-6.793381397476105,-0.21455559055664222,-1.1812668406265632,9.764918350034213,-1.8938376269572007e-06,0.0010908291385092687,0.0,-20.65394201564929,52.65172116573395,-97.6875
1772747642.1104228,86.08500224568445,1.6752306534971537,-6.793381397476105,-0.2075309236318625,-1.1807573761768677,9.767749462330817,1.8938376269572007e-06,-0.0010908291385092687,0.0,-21.78013391809998,53.337266969349216,-97.0
1772747642.1395788,86.08500224568445,1.6752306534971537,-6.793381397476105,-0.2075309236318625,-1.1807573761768677,9.767749462330817,1.8938376269572007e-06,-0.0010908291385092687,0.0,-21.78013391809998,53.337266969349216,-97.0
1772747642.1680436,86.08500224568445,1.6752306534971537,-6.793381397476105,-0.21436166904946785,-1.1806370050793435,9.771847404028632,0.0,0.0,-0.002181661564992912,-22.09328450055099,53.71172385967251,-97.6875
