timestamp,yaw,pitch,roll,ax,ay,az,gx,gy,gz,mx,my,mz
1772053500.5268514,180.0,0.0,0.0,0.0,0.0,0.0,-0.001090830782496456,-0.001090830782496456,0.0,-50.8125,22.0625,-140.9375
1772053500.5385554,180.0,0.0,0.0,0.0,0.0,0.0,-0.001090830782496456,-0.003272492347489368,-0.002181661564992912,-49.6875,22.8125,-140.9375
1772053500.5494304,180.0,0.0,0.0,0.0,0.0,0.0,0.0,-0.003272492347489368,-0.001090830782496456,-49.6875,22.8125,-140.9375
1772053500.560233,180.0,0.0,0.0,0.0,0.0,0.0,0.0,-0.003272492347489368,-0.001090830782496456,-49.6875,22.8125,-140.9375
1772053500.5711346,180.0,0.0,0.0,0.0,0.0,0.0,-0.001090830782496456,-0.002181661564992912,-0.001090830782496456,-49.6875,22.8125,-140.9375
1772053500.5822408,180.0,0.0,0.0,0.0,0.0,0.0,-0.002181661564992912,-0.001090830782496456,-0.001090830782496456,-49.6875,22.8125,-140.9375
1772053500.5978703,180.0,0.0,0.0,0.0,0.0,0.0,-0.002181661564992912,-0.001090830782496456,-0.001090830782496456,-49.6875,22.8125,-140.9375
1772053500.6097794,180.0,0.0,0.0,0.0,0.0,0.0,0.0,-0.003272492347489368,-0.003272492347489368,-50.8125,23.1875,-141.3125
1772053500.6217167,180.0,0.0,0.0,0.0,0.0,0.0,0.0,-0.003272492347489368,-0.003272492347489368,-50.8125,23.1875,-141.3125
1772053500.6356134,180.0,0.0,0.0,0.0,0.0,0.0,0.0,-0.003272492347489368,-0.003272492347489368,-50.8125,23.1875,-141.3125
1772053500.7086751,-7.016709298534876e-15,-0.0,0.0,0.0,0.0,0.0,0.0010908307824964564,0.003272492347489368,-0.002181661564992912,50.0625,-23.562500000000007,-141.6875
1772053500.739944,-7.016709298534876e-15,-0.0,0.0,0.0,0.0,0.0,0.0010908307824964566,0.00545415391248228,-0.002181661564992912,50.0625,-23.562500000000007,-141.6875
1772053500.7773707,-7.016709298534876e-15,-0.0,0.0,0.0,0.0,0.0,0.0010908307824964564,0.003272492347489368,-0.002181661564992912,51.5625,-22.437500000000007,-141.6875
1772053500.818104,-7.016709298534876e-15,-0.0,0.0,0.0,0.0,0.0,0.0021816615649929115,-0.0021816615649929124,-0.002181661564992912,51.5625,-22.437500000000007,-141.6875
1772053500.8528,-7.016709298534876e-15,-0.0,0.0,0.0,0.0,0.0,0.0032724923474893686,0.0032724923474893677,0.0,51.9375,-19.125000000000007,-144.5
1772053500.882134,-7.016709298534876e-15,-0.0,0.0,0.0,0.0,0.0,-0.004363323129985824,0.0010908307824964564,-0.018544123302439753,51.9375,-19.125000000000007,-144.5
1772053500.9333107,-7.016709298534876e-15,-0.0,0.0,0.0,0.0,0.0,0.05672320068981571,0.005454153912482273,0.018544123302439753,49.3125,-21.687500000000007,-141.6875
1772053500.9699562,-7.016709298534876e-15,-0.0,0.0,0.0,0.0,0.0,-0.011999138607461018,-0.031634092692397225,0.038179077387375956,49.3125,-21.687500000000007,-141.6875
1772053500.9997816,-7.016709298534876e-15,-0.0,0.0,0.0,0.0,0.0,-0.061086523819801536,0.011999138607461022,-0.013089969389957472,50.0625,-24.625000000000007,-139.3125
1772053501.07909,-7.016709298534876e-15,-0.0,0.0,0.0,0.0,0.0,0.009817477042468105,0.017453292519943295,0.04036073895236887,50.0625,-24.625000000000007,-139.3125
1772053501.1114845,-7.016709298534876e-15,-0.0,0.0,0.0,0.0,0.0,-0.008726646259971646,0.016362461737446838,0.04145156973486533,48.9375,-28.312500000000007,-135.375
1772053501.1288133,-7.016709298534876e-15,-0.0,0.0,0.0,0.0,0.0,-0.010908307824964561,-0.008726646259971646,-0.002181661564992912,48.9375,-28.312500000000007,-135.375
1772053501.1522622,-7.016709298534876e-15,-0.0,0.0,0.0,0.0,0.0,-0.005454153912482278,0.016362461737446838,0.0272707695624114,48.9375,-28.312500000000007,-135.375
1772053501.1750462,-7.016709298534876e-15,-0.0,0.0,0.0,0.0,0.0,-0.005454153912482278,0.016362461737446838,0.0272707695624114,48.9375,-28.312500000000007,-135.375
1772053501.2775826,-7.016709298534876e-15,-0.0,0.0,0.0,0.0,0.0,-0.008726646259971646,0.009817477042468105,0.020725784867432664,49.68749999999999,-32.75000000000001,-128.5625
1772053501.2992687,-7.016709298534876e-15,-0.0,0.0,0.0,0.0,0.0,0.005454153912482281,0.016362461737446838,-0.044724062082354694,48.93749999999999,-33.12500000000001,-125.8125
1772053501.3239856,-7.016709298534876e-15,-0.0,0.0,0.0,0.0,0.0,-0.01090830782496456,-0.005454153912482278,-0.04036073895236887,48.93749999999999,-33.12500000000001,-125.8125
1772053501.3371348,-7.016709298534876e-15,-0.0,0.0,0.0,0.0,0.0,-0.01090830782496456,-0.005454153912482278,-0.04036073895236887,48.93749999999999,-33.12500000000001,-125.8125
1772053501.36991,-7.016709298534876e-15,-0.0,0.0,0.0,0.0,0.0,0.006544984694978736,-0.002181661564992913,-0.002181661564992912,48.93749999999999,-33.12500000000001,-125.8125
1772053501.4086103,-7.016709298534876e-15,-0.0,0.0,0.0,0.0,0.0,0.011999138607461015,0.004363323129985822,-0.017453292519943295,48.56249999999999,-33.87500000000001,-121.8125
1772053501.4808893,-7.016709298534876e-15,-0.0,0.0,0.0,0.0,0.0,0.006544984694978737,0.008726646259971648,0.05890486225480862,48.93749999999999,-32.37500000000001,-119.875
1772053501.4946542,-7.016709298534876e-15,-0.0,0.0,0.0,0.0,0.0,0.0032724923474893686,0.0021816615649929115,0.04036073895236887,48.93749999999999,-32.37500000000001,-119.875
1772053501.5277238,-7.016709298534876e-15,-0.0,0.0,0.0,0.0,0.0,6.679412130978437e-19,0.00545415391248228,0.07853981633974483,47.87499999999999,-31.625000000000007,-116.6875
1772053501.5790462,-7.016709298534876e-15,-0.0,0.0,0.0,0.0,0.0,0.00327249234748937,0.015271630954950384,0.1189005552921137,47.87499999999999,-31.625000000000007,-116.6875
1772053501.6070569,-7.016709298534876e-15,-0.0,0.0,0.0,0.0,0.0,0.005454153912482281,0.01090830782496456,0.15271630954950383,47.49999999999999,-34.25000000000001,-112.6875
1772053501.7114098,-7.016709298534876e-15,-0.0,0.0,0.0,0.0,0.0,0.0010908307824964588,0.022907446432425576,0.26070855701665296,47.49999999999999,-34.25000000000001,-112.6875
1772053501.7623127,-7.016709298534876e-15,-0.0,0.0,0.0,0.0,0.0,0.005454153912482283,0.025089107997418487,0.2879793265790644,45.24999999999999,-35.68750000000001,-108.75
1772053501.7872772,-7.016709298534876e-15,-0.0,0.0,0.0,0.0,0.0,-0.006544984694978732,0.032724923474893676,0.28688849579656794,45.24999999999999,-35.68750000000001,-108.75
1772053501.807357,-7.016709298534876e-15,-0.0,0.0,0.0,0.0,0.0,-0.006544984694978732,0.032724923474893676,0.28688849579656794,45.24999999999999,-35.68750000000001,-108.75
1772053501.8428085,-7.016709298534876e-15,-0.0,0.0,0.0,0.0,0.0,0.00654498469497874,0.028361600344907856,0.27052603405912107,45.99999999999999,-34.93750000000001,-105.9375
1772053501.8674426,-7.016709298534876e-15,-0.0,0.0,0.0,0.0,0.0,0.011999138607461018,0.028361600344907856,0.272707695624114,45.99999999999999,-34.93750000000001,-105.9375
1772053501.889647,-7.016709298534876e-15,-0.0,0.0,0.0,0.0,0.0,0.0021816615649929145,0.02181661564992912,0.3097959422289935,45.99999999999999,-34.93750000000001,-105.9375
1772053501.9130263,-7.016709298534876e-15,-0.0,0.0,0.0,0.0,0.0,-0.010908307824964556,0.028361600344907856,0.32288591161895097,44.87499999999999,-34.93750000000001,-105.125
1772053501.941565,-7.016709298534876e-15,-0.0,0.0,0.0,0.0,0.0,-0.0032724923474893646,0.0272707695624114,0.2977968036215325,44.87499999999999,-34.93750000000001,-105.125
1772053501.9690547,-7.016709298534876e-15,-0.0,0.0,0.0,0.0,0.0,0.004363323129985827,0.0272707695624114,0.30325095753401476,41.93749999999999,-33.50000000000001,-102.375
1772053501.9844673,-7.016709298534876e-15,-0.0,0.0,0.0,0.0,0.0,0.005454153912482283,0.025089107997418487,0.29670597283903605,41.93749999999999,-33.50000000000001,-102.375
1772053502.0058308,-7.016709298534876e-15,-0.0,0.0,0.0,0.0,0.0,0.003272492347489371,0.025089107997418487,0.26725354171163174,41.93749999999999,-33.50000000000001,-102.375
1772053502.036693,-7.016709298534876e-15,-0.0,0.0,0.0,0.0,0.0,0.00654498469497874,0.031634092692397225,0.26398104936414235,42.68749999999999,-34.25000000000001,-100.0
1772053502.060281,-7.016709298534876e-15,-0.0,0.0,0.0,0.0,0.0,0.009817477042468107,0.030543261909900768,0.25416357232167425,42.68749999999999,-34.25000000000001,-100.0
1772053502.1017725,-7.016709298534876e-15,-0.0,0.0,0.0,0.0,0.0,0.009817477042468107,0.030543261909900768,0.25416357232167425,42.68749999999999,-34.25000000000001,-100.0
1772053502.1291132,-7.016709298534876e-15,-0.0,0.0,0.0,0.0,0.0,0.002181661564992915,0.026179938779914945,0.2628902185816459,41.93749999999999,-32.00000000000001,-100.0
1772053502.1569836,-7.016709298534876e-15,-0.0,0.0,0.0,0.0,0.0,0.002181661564992915,0.026179938779914945,0.2628902185816459,41.93749999999999,-32.00000000000001,-100.0
1772053502.1733,-7.016709298534876e-15,-0.0,0.0,0.0,0.0,0.0,0.0032724923474893703,0.016362461737446838,0.2530727415391778,41.93749999999999,-32.00000000000001,-100.0
1772053502.192419,-7.016709298534876e-15,-0.0,0.0,0.0,0.0,0.0,0.019634954084936207,0.006544984694978734,0.25416357232167425,41.93749999999999,-32.00000000000001,-100.0
1772053502.210227,-7.016709298534876e-15,-0.0,0.0,0.0,0.0,0.0,0.006544984694978739,0.018544123302439753,0.23343778745424157,40.87499999999999,-32.75000000000001,-98.8125
1772053502.2697613,-7.016709298534876e-15,-0.0,0.0,0.0,0.0,0.0,0.006544984694978741,0.032724923474893676,0.24652775684419906,40.87499999999999,-32.75000000000001,-98.8125
1772053502.2911994,-7.016709298534876e-15,-0.0,0.0,0.0,0.0,0.0,0.009817477042468107,0.02399827721492203,0.2814343418840856,40.49999999999999,-32.37500000000001,-97.1875
1772053502.316319,-7.016709298534876e-15,-0.0,0.0,0.0,0.0,0.0,0.004363323129985827,0.02945243112740431,0.2585268954516601,40.49999999999999,-32.37500000000001,-97.1875
1772053502.3690631,-7.016709298534876e-15,-0.0,0.0,0.0,0.0,0.0,0.002181661564992916,0.030543261909900768,0.25743606466916363,38.24999999999999,-31.250000000000004,-94.8125
1772053502.4368324,-7.016709298534876e-15,-0.0,0.0,0.0,0.0,0.0,0.001090830782496459,0.02399827721492203,0.23452861823673804,38.99999999999999,-30.187500000000004,-93.625
1772053502.4911857,-7.016709298534876e-15,-0.0,0.0,0.0,0.0,0.0,0.007635815477475194,0.016362461737446838,0.24216443371421323,38.99999999999999,-30.187500000000004,-93.625
1772053502.5178971,-7.016709298534876e-15,-0.0,0.0,0.0,0.0,0.0,0.014180800172453932,0.031634092692397225,0.2530727415391778,38.99999999999999,-30.187500000000004,-93.625
1772053502.5789208,-7.016709298534876e-15,-0.0,0.0,0.0,0.0,0.0,0.006544984694978741,0.03490658503988659,0.24652775684419906,37.18749999999999,-29.812500000000004,-91.25
1772053502.6699321,-7.016709298534876e-15,-0.0,0.0,0.0,0.0,0.0,0.008726646259971651,0.028361600344907856,0.25416357232167425,36.4375,-28.312500000000004,-90.4375
1772053502.7221415,-7.016709298534876e-15,-0.0,0.0,0.0,0.0,0.0,0.013089969389957476,0.025089107997418487,0.24652775684419906,35.6875,-27.937500000000004,-88.5
1772053502.7643664,-7.016709298534876e-15,-0.0,0.0,0.0,0.0,0.0,0.011999138607461017,0.00763581547747519,0.24325526449670967,35.6875,-27.937500000000004,-88.5
1772053502.816689,-7.016709298534876e-15,-0.0,0.0,0.0,0.0,0.0,0.0174532925199433,0.023998277214922027,0.23234695667174513,35.6875,-26.125000000000004,-88.4375
1772053502.906832,-7.016709298534876e-15,-0.0,0.0,0.0,0.0,0.0,0.004363323129985828,0.03381575425739013,0.23234695667174513,34.5625,-25.750000000000004,-88.5
1772053502.9972167,-7.016709298534876e-15,-0.0,0.0,0.0,0.0,0.0,0.013089969389957478,0.039269908169872414,0.2683443724941282,34.25,-26.500000000000004,-85.6875
1772053503.0351212,-7.016709298534876e-15,-0.0,0.0,0.0,0.0,0.0,-0.0032724923474893638,0.03381575425739013,0.2912518189265537,32.375,-24.625000000000004,-86.5
1772053503.096586,-7.016709298534876e-15,-0.0,0.0,0.0,0.0,0.0,0.002181661564992915,0.02399827721492203,0.272707695624114,32.375,-24.625000000000004,-86.5
1772053503.1716564,-7.016709298534876e-15,-0.0,0.0,0.0,0.0,0.0,0.010908307824964561,0.018544123302439753,0.29343348049154666,33.5,-24.250000000000004,-84.5
1772053503.2198122,-7.016709298534876e-15,-0.0,0.0,0.0,0.0,0.0,0.0021816615649929167,0.038179077387375956,0.22471114119426994,32.375,-23.562500000000004,-83.3125
1772053503.2904177,-7.016709298534876e-15,-0.0,0.0,0.0,0.0,0.0,0.028361600344907856,0.011999138607461012,0.24434609527920614,30.187499999999996,-23.187500000000004,-83.3125
1772053503.3473592,-7.016709298534876e-15,-0.0,0.0,0.0,0.0,0.0,0.006544984694978741,0.03599741582238305,0.2694352032766246,30.187499999999996,-23.187500000000004,-83.3125
1772053503.4126315,-7.016709298534876e-15,-0.0,0.0,0.0,0.0,0.0,0.01636246173744684,0.021816615649929115,0.2083486794568231,30.562499999999996,-21.687500000000004,-82.875
1772053503.4563286,-7.016709298534876e-15,-0.0,0.0,0.0,0.0,0.0,4.6755884916849055e-18,0.038179077387375956,0.2945243112740431,29.812499999999996,-22.062500000000004,-82.875
1772053503.505635,-7.016709298534876e-15,-0.0,0.0,0.0,0.0,0.0,0.005454153912482285,0.04145156973486533,0.2519819107566813,29.812499999999996,-22.062500000000004,-82.875
1772053503.565514,-7.016709298534876e-15,-0.0,0.0,0.0,0.0,0.0,0.009817477042468107,0.02399827721492203,0.2628902185816459,29.812499999999996,-20.625000000000004,-82.125
1772053503.6511843,-7.016709298534876e-15,-0.0,0.0,0.0,0.0,0.0,0.014180800172453933,0.038179077387375956,0.2585268954516601,29.062499999999996,-19.125000000000004,-80.9375
1772053503.7583737,-7.016709298534876e-15,-0.0,0.0,0.0,0.0,0.0,0.01636246173744684,0.028361600344907853,0.25089107997418486,29.062499999999996,-19.125000000000004,-80.9375
1772053503.8354008,-7.016709298534876e-15,-0.0,0.0,0.0,0.0,0.0,0.003272492347489372,0.032724923474893676,0.28034351110158917,26.874999999999996,-18.750000000000004,-80.9375
1772053503.8573115,-7.016709298534876e-15,-0.0,0.0,0.0,0.0,0.0,0.010908307824964563,0.025089107997418487,0.2716168648416175,27.249999999999996,-17.250000000000004,-79.6875
1772053503.9198856,-7.016709298534876e-15,-0.0,0.0,0.0,0.0,0.0,0.006544984694978739,0.022907446432425576,0.24434609527920614,27.249999999999996,-17.250000000000004,-79.6875
1772053503.9801838,-7.016709298534876e-15,-0.0,0.0,0.0,0.0,0.0,0.0076358154774751955,0.028361600344907856,0.2716168648416175,26.124999999999996,-15.812500000000004,-79.3125
1772053504.013477,-7.016709298534876e-15,-0.0,0.0,0.0,0.0,0.0,0.013089969389957476,0.022907446432425576,0.25416357232167425,25.749999999999996,-15.812500000000004,-79.75
1772053504.0572352,-7.016709298534876e-15,-0.0,0.0,0.0,0.0,0.0,0.0174532925199433,0.01854412330243975,0.24216443371421323,25.749999999999996,-15.812500000000004,-79.75
1772053504.0928109,-7.016709298534876e-15,-0.0,0.0,0.0,0.0,0.0,0.005454153912482282,0.018544123302439753,0.2628902185816459,24.624999999999996,-16.937500000000004,-78.5625
1772053504.1162527,-7.016709298534876e-15,-0.0,0.0,0.0,0.0,0.0,-0.001090830782496453,0.025089107997418487,0.2585268954516601,24.624999999999996,-16.937500000000004,-78.5625
1772053504.155023,-7.016709298534876e-15,-0.0,0.0,0.0,0.0,0.0,0.010908307824964561,0.020725784867432664,0.2530727415391778,25.75,-13.937500000000004,-79.3125
1772053504.1794026,-7.016709298534876e-15,-0.0,0.0,0.0,0.0,0.0,0.005454153912482283,0.031634092692397225,0.2716168648416175,25.75,-13.937500000000004,-79.3125
1772053504.3237967,-7.016709298534876e-15,-0.0,0.0,0.0,0.0,0.0,0.013089969389957476,0.03490658503988659,0.18871372537188688,25.0,-13.937500000000004,-78.9375
1772053504.3475034,-7.016709298534876e-15,-0.0,0.0,0.0,0.0,0.0,0.0021816615649929145,0.02181661564992912,0.14508049407202864,25.0,-13.250000000000004,-78.5
1772053504.3632119,-7.016709298534876e-15,-0.0,0.0,0.0,0.0,0.0,0.027270769562411402,0.032724923474893676,0.1505346479845109,25.0,-13.250000000000004,-78.5
1772053504.3845487,-7.016709298534876e-15,-0.0,0.0,0.0,0.0,0.0,0.0010908307824964558,-0.002181661564992912,0.13308135546456762,25.0,-13.250000000000004,-78.5
1772053504.4388063,-7.016709298534876e-15,-0.0,0.0,0.0,0.0,0.0,0.009817477042468105,0.008726646259971646,0.1505346479845109,23.5625,-12.125000000000004,-77.3125
1772053504.4759684,-7.016709298534876e-15,-0.0,0.0,0.0,0.0,0.0,-0.017453292519943295,-0.010908307824964558,0.15489797111449674,23.5625,-12.125000000000004,-77.3125
1772053504.4934988,-7.016709298534876e-15,-0.0,0.0,0.0,0.0,0.0,-0.0272707695624114,-0.010908307824964556,0.1832595714594046,25.0,-12.500000000000004,-77.75
1772053504.5453353,-7.016709298534876e-15,-0.0,0.0,0.0,0.0,0.0,0.015271630954950387,0.028361600344907853,0.2279836335417593,25.0,-12.500000000000004,-77.75
1772053504.5654695,-7.016709298534876e-15,-0.0,0.0,0.0,0.0,0.0,0.015271630954950387,0.028361600344907853,0.2279836335417593,25.0,-12.500000000000004,-77.75
1772053504.5946,-7.016709298534876e-15,-0.0,0.0,0.0,0.0,0.0,0.017453292519943302,0.04581489286485115,0.2552544031041707,24.625,-11.375000000000004,-78.9375
1772053504.6160302,-7.016709298534876e-15,-0.0,0.0,0.0,0.0,0.0,2.8053530950109435e-18,0.022907446432425576,0.28688849579656794,24.625,-11.375000000000004,-78.9375
1772053504.682602,-7.016709298534876e-15,-0.0,0.0,0.0,0.0,0.0,0.01636246173744684,0.03599741582238305,0.2378011105842274,24.25,-11.375000000000004,-77.75
1772053504.7072403,-7.016709298534876e-15,-0.0,0.0,0.0,0.0,0.0,0.004363323129985827,0.0272707695624114,0.2781618495365963,24.25,-11.375000000000004,-77.75
1772053504.7266524,-7.016709298534876e-15,-0.0,0.0,0.0,0.0,0.0,3.606882550728356e-18,0.02945243112740431,0.2530727415391778,23.9375,-10.625000000000004,-77.75
1772053504.8148298,-7.016709298534876e-15,-0.0,0.0,0.0,0.0,0.0,0.011999138607461018,0.02945243112740431,0.27052603405912107,23.9375,-10.625000000000004,-77.75
1772053504.8576682,-7.016709298534876e-15,-0.0,0.0,0.0,0.0,0.0,0.0043633231299858265,0.02399827721492203,0.3752457891787809,24.625,-10.625000000000004,-78.5
1772053504.8813293,-7.016709298534876e-15,-0.0,0.0,0.0,0.0,0.0,0.020725784867432668,0.038179077387375956,0.2748893571891069,24.625,-10.625000000000004,-78.5
1772053504.905226,-7.016709298534876e-15,-0.0,0.0,0.0,0.0,0.0,0.020725784867432668,0.038179077387375956,0.2748893571891069,24.625,-10.625000000000004,-78.5
1772053504.9264007,-7.016709298534876e-15,-0.0,0.0,0.0,0.0,0.0,0.009817477042468107,0.025089107997418487,0.2301652951067522,23.1875,-9.187500000000004,1969.875
1772053504.9469795,-7.016709298534876e-15,-0.0,0.0,0.0,0.0,0.0,0.01963495408493621,0.017453292519943292,0.1810779098944117,23.1875,-9.187500000000004,1969.875
1772053504.9662368,-7.016709298534876e-15,-0.0,0.0,0.0,0.0,0.0,0.014180800172453933,0.04254240051736178,0.22362031041177347,23.1875,-8.812500000000004,-78.5
1772053504.9882858,-7.016709298534876e-15,-0.0,0.0,0.0,0.0,0.0,0.014180800172453933,0.04254240051736178,0.22362031041177347,23.1875,-8.812500000000004,-78.5
1772053505.006456,-7.016709298534876e-15,-0.0,0.0,0.0,0.0,0.0,0.018544123302439753,0.011999138607461013,0.26616271092913524,23.1875,-8.812500000000004,-78.5
1772053505.0315776,-7.016709298534876e-15,-0.0,0.0,0.0,0.0,0.0,0.005454153912482285,0.04036073895236887,0.31525009614147576,23.9375,-8.812500000000004,-78.9375
1772053505.063935,-7.016709298534876e-15,-0.0,0.0,0.0,0.0,0.0,0.0010908307824964586,0.02181661564992912,0.2825251726665821,23.9375,-8.812500000000004,-78.9375
1772053505.0927634,-7.016709298534876e-15,-0.0,0.0,0.0,0.0,0.0,0.004363323129985826,0.017453292519943295,0.23889194136672387,22.4375,-10.312500000000004,-78.5625
1772053505.1106942,-7.016709298534876e-15,-0.0,0.0,0.0,0.0,0.0,0.004363323129985827,0.0272707695624114,0.2585268954516601,22.4375,-10.312500000000004,-78.5625
1772053505.1399493,-7.016709298534876e-15,-0.0,0.0,0.0,0.0,0.0,0.002181661564992915,0.025089107997418487,0.2585268954516601,22.4375,-10.312500000000004,-78.5625
1772053505.1822624,-7.016709298534876e-15,-0.0,0.0,0.0,0.0,0.0,-0.0065449846949787345,0.01090830782496456,0.2716168648416175,21.3125,-8.437500000000002,-78.125
1772053505.2188761,-7.016709298534876e-15,-0.0,0.0,0.0,0.0,0.0,0.01636246173744684,0.031634092692397225,0.25089107997418486,21.3125,-8.437500000000002,-78.125
1772053505.2667077,-7.016709298534876e-15,-0.0,0.0,0.0,0.0,0.0,0.008726646259971653,0.04036073895236887,0.27598018797160334,22.4375,-6.625000000000003,-78.9375
1772053505.3047569,-7.016709298534876e-15,-0.0,0.0,0.0,0.0,0.0,0.005454153912482283,0.0272707695624114,0.22143864884678055,22.4375,-6.625000000000003,-78.9375
1772053505.343263,-7.016709298534876e-15,-0.0,0.0,0.0,0.0,0.0,-0.006544984694978734,0.020725784867432664,0.2901609881440573,23.9375,-6.625000000000003,-78.9375
1772053505.3934033,-7.016709298534876e-15,-0.0,0.0,0.0,0.0,0.0,-0.006544984694978734,0.020725784867432664,0.2901609881440573,23.9375,-6.625000000000003,-78.9375
1772053505.4235058,-7.016709298534876e-15,-0.0,0.0,0.0,0.0,0.0,0.020725784867432668,0.01854412330243975,0.22689280275926285,23.1875,-6.250000000000003,-78.125
1772053505.4508007,-7.016709298534876e-15,-0.0,0.0,0.0,0.0,0.0,5.20994146216318e-18,0.04254240051736178,0.31525009614147576,23.1875,-6.250000000000003,-78.125
1772053505.4913917,-7.016709298534876e-15,-0.0,0.0,0.0,0.0,0.0,0.003272492347489371,0.025089107997418487,0.27598018797160334,23.1875,-5.500000000000003,-78.125
1772053505.540886,-7.016709298534876e-15,-0.0,0.0,0.0,0.0,0.0,0.03054326190990077,0.027270769562411395,0.1908953869368798,23.1875,-5.500000000000003,-78.125
1772053505.609048,-7.016709298534876e-15,-0.0,0.0,0.0,0.0,0.0,0.009817477042468107,0.02399827721492203,0.29561514205653955,22.0625,-6.625000000000003,-77.75
1772053505.6736302,-7.016709298534876e-15,-0.0,0.0,0.0,0.0,0.0,0.00872664625997165,0.020725784867432664,0.25416357232167425,23.1875,-5.500000000000003,-78.5
1772053505.7017016,-7.016709298534876e-15,-0.0,0.0,0.0,0.0,0.0,0.011999138607461017,0.016362461737446838,0.23343778745424157,23.1875,-5.500000000000003,-78.5
1772053505.727208,-7.016709298534876e-15,-0.0,0.0,0.0,0.0,0.0,0.018544123302439756,0.025089107997418484,0.24434609527920614,23.1875,-5.125000000000003,-78.5
1772053505.7638032,-7.016709298534876e-15,-0.0,0.0,0.0,0.0,0.0,0.018544123302439756,0.025089107997418484,0.24434609527920614,23.1875,-5.125000000000003,-78.5
1772053505.8166544,-7.016709298534876e-15,-0.0,0.0,0.0,0.0,0.0,-0.0021816615649929085,0.028361600344907856,0.29343348049154666,22.8125,-4.000000000000003,-78.125
1772053505.8679097,-7.016709298534876e-15,-0.0,0.0,0.0,0.0,0.0,0.0076358154774751955,0.025089107997418487,0.26398104936414235,22.8125,-4.000000000000003,-78.125
1772053505.9400816,-7.016709298534876e-15,-0.0,0.0,0.0,0.0,0.0,0.004363323129985827,0.026179938779914945,0.23343778745424157,21.6875,-4.375000000000003,-77.75
1772053506.0038567,-7.016709298534876e-15,-0.0,0.0,0.0,0.0,0.0,0.0010908307824964586,0.02181661564992912,0.28579766501407144,22.4375,-3.6250000000000027,-78.5
1772053506.1164687,-7.016709298534876e-15,-0.0,0.0,0.0,0.0,0.0,0.003272492347489371,0.02399827721492203,0.26070855701665296,22.0625,-2.9375000000000027,-79.3125
1772053506.1713321,-7.016709298534876e-15,-0.0,0.0,0.0,0.0,0.0,0.00654498469497874,0.02945243112740431,0.2683443724941282,22.0625,-2.9375000000000027,-79.3125
1772053506.2109401,-7.016709298534876e-15,-0.0,0.0,0.0,0.0,0.0,0.007635815477475196,0.032724923474893676,0.27598018797160334,22.0625,-2.9375000000000027,-79.3125
1772053506.2374113,-7.016709298534876e-15,-0.0,0.0,0.0,0.0,0.0,0.003272492347489371,0.025089107997418487,0.2585268954516601,21.3125,-4.375000000000003,-79.6875
1772053506.3375788,-7.016709298534876e-15,-0.0,0.0,0.0,0.0,0.0,0.00872664625997165,0.019634954084936207,0.2596177262341565,21.3125,-2.9375000000000027,-77.75
1772053506.4004622,-7.016709298534876e-15,-0.0,0.0,0.0,0.0,0.0,0.007635815477475195,0.019634954084936207,0.24434609527920614,21.3125,-2.9375000000000027,-77.75
1772053506.4499843,-7.016709298534876e-15,-0.0,0.0,0.0,0.0,0.0,0.014180800172453932,0.022907446432425572,0.2530727415391778,23.1875,-2.9375000000000027,-78.9375
1772053506.5089407,-7.016709298534876e-15,-0.0,0.0,0.0,0.0,0.0,0.006544984694978741,0.037088246604879506,0.27598018797160334,22.0625,-2.1875000000000027,-79.3125
1772053506.5606136,-7.016709298534876e-15,-0.0,0.0,0.0,0.0,0.0,0.011999138607461018,0.025089107997418487,0.2596177262341565,22.8125,-2.1875000000000027,-78.5
1772053506.6010156,-7.016709298534876e-15,-0.0,0.0,0.0,0.0,0.0,0.014180800172453932,0.031634092692397225,0.25416357232167425,22.8125,-2.1875000000000027,-78.5
1772053506.63761,-7.016709298534876e-15,-0.0,0.0,0.0,0.0,0.0,0.008726646259971651,0.02181661564992912,0.2683443724941282,22.4375,-1.4375000000000027,-78.875
1772053506.689401,-7.016709298534876e-15,-0.0,0.0,0.0,0.0,0.0,0.01418080017245393,0.01854412330243975,0.2814343418840856,22.4375,-1.4375000000000027,-78.875
1772053506.759888,-7.016709298534876e-15,-0.0,0.0,0.0,0.0,0.0,0.010908307824964563,0.022907446432425576,0.19634954084936207,22.0625,-1.0625000000000027,-78.125
1772053506.8333592,-7.016709298534876e-15,-0.0,0.0,0.0,0.0,0.0,0.020725784867432668,0.021816615649929115,0.25089107997418486,23.1875,-1.0625000000000029,-78.125
1772053506.8809988,-7.016709298534876e-15,-0.0,0.0,0.0,0.0,0.0,0.011999138607461018,0.030543261909900768,0.2476185876266955,23.5625,-2.9375000000000027,-78.125
1772053506.9168086,-7.016709298534876e-15,-0.0,0.0,0.0,0.0,0.0,0.009817477042468107,0.032724923474893676,0.2399827721492203,23.5625,-2.9375000000000027,-78.125
1772053506.9472451,-7.016709298534876e-15,-0.0,0.0,0.0,0.0,0.0,0.0021816615649929145,0.022907446432425576,0.23561944901923448,23.5625,-2.9375000000000027,-78.125
1772053507.007266,-7.016709298534876e-15,-0.0,0.0,0.0,0.0,0.0,-0.0065449846949787345,0.015271630954950384,0.20943951023931956,23.1875,-1.4375000000000029,-78.9375
1772053507.0796754,-7.016709298534876e-15,-0.0,0.0,0.0,0.0,0.0,-0.007635815477475191,0.006544984694978737,0.18216874067690814,23.1875,-1.4375000000000029,-78.9375
1772053507.1191828,-7.016709298534876e-15,-0.0,0.0,0.0,0.0,0.0,0.013089969389957474,0.019634954084936207,0.21707532571679475,21.6875,-1.0625000000000027,-78.125
1772053507.176009,-7.016709298534876e-15,-0.0,0.0,0.0,0.0,0.0,-0.005454153912482276,0.025089107997418487,0.22471114119426994,21.6875,-1.0625000000000027,-78.125
1772053507.2054415,-7.016709298534876e-15,-0.0,0.0,0.0,0.0,0.0,0.004363323129985825,0.008726646259971648,0.1930770485018727,23.9375,-0.6875000000000029,-77.6875
1772053507.2553442,-7.016709298534876e-15,-0.0,0.0,0.0,0.0,0.0,0.030543261909900775,0.051269046777333425,0.16035212502697901,23.9375,-0.6875000000000029,-77.6875
1772053507.3098006,-7.016709298534876e-15,-0.0,0.0,0.0,0.0,0.0,0.003272492347489371,0.025089107997418487,0.20616701789183017,23.9375,-0.6875000000000029,-78.5
1772053507.3316538,-7.016709298534876e-15,-0.0,0.0,0.0,0.0,0.0,0.005454153912482284,0.037088246604879506,0.22689280275926285,24.25,-0.687500000000003,-77.6875
1772053507.438308,-7.016709298534876e-15,-0.0,0.0,0.0,0.0,0.0,-0.011999138607461017,-0.017453292519943295,0.12435470920459599,23.9375,-1.0625000000000029,-77.3125
1772053507.4654312,-7.016709298534876e-15,-0.0,0.0,0.0,0.0,0.0,-0.011999138607461017,-0.017453292519943295,0.12435470920459599,23.9375,-1.0625000000000029,-77.3125
1772053507.5492435,-7.016709298534876e-15,-0.0,0.0,0.0,0.0,0.0,-0.0010908307824964538,0.017453292519943295,0.2399827721492203,23.1875,-2.1875000000000027,-78.5
1772053507.5732143,-7.016709298534876e-15,-0.0,0.0,0.0,0.0,0.0,-0.004363323129985821,0.019634954084936207,0.28579766501407144,24.625,-1.437500000000003,-77.3125
1772053507.614881,-7.016709298534876e-15,-0.0,0.0,0.0,0.0,0.0,0.01636246173744684,0.027270769562411395,0.25089107997418486,24.625,-1.437500000000003,-77.3125
1772053507.6424227,-7.016709298534876e-15,-0.0,0.0,0.0,0.0,0.0,0.01199913860746102,0.04254240051736178,0.25634523388666713,24.625,-1.437500000000003,-77.3125
1772053507.6674871,-7.016709298534876e-15,-0.0,0.0,0.0,0.0,0.0,-0.0032724923474893655,0.022907446432425576,0.2476185876266955,24.25,-1.4375000000000029,-77.6875
1772053507.6808808,-7.016709298534876e-15,-0.0,0.0,0.0,0.0,0.0,0.005454153912482282,0.018544123302439753,0.24325526449670967,24.25,-1.4375000000000029,-77.6875
1772053507.7279599,-7.016709298534876e-15,-0.0,0.0,0.0,0.0,0.0,3.2061178228696503e-18,0.026179938779914945,0.25634523388666713,24.25,-1.4375000000000029,-77.6875
1772053507.7538054,-7.016709298534876e-15,-0.0,0.0,0.0,0.0,0.0,0.0021816615649929145,0.020725784867432664,0.26725354171163174,25.0,-2.187500000000003,-75.3125
1772053507.8042345,-7.016709298534876e-15,-0.0,0.0,0.0,0.0,0.0,0.002181661564992914,0.017453292519943295,0.284706834231575,25.75,-1.437500000000003,-76.5625
1772053507.8545346,-7.016709298534876e-15,-0.0,0.0,0.0,0.0,0.0,0.011999138607461017,0.019634954084936207,0.2825251726665821,25.75,-1.437500000000003,-76.5625
1772053507.8831909,-7.016709298534876e-15,-0.0,0.0,0.0,0.0,0.0,0.013089969389957476,0.02399827721492203,0.2792526803190927,23.9375,-2.937500000000003,-75.6875
1772053507.9248755,-7.016709298534876e-15,-0.0,0.0,0.0,0.0,0.0,-0.00436332312998582,0.031634092692397225,0.2825251726665821,23.9375,-2.937500000000003,-75.6875
1772053507.9910295,-7.016709298534876e-15,-0.0,0.0,0.0,0.0,0.0,0.009817477042468107,0.02181661564992912,0.2879793265790644,24.625,-1.437500000000003,-76.125
1772053508.0156333,-7.016709298534876e-15,-0.0,0.0,0.0,0.0,0.0,2.538176609771806e-18,0.020725784867432664,0.25743606466916363,24.625,-1.437500000000003,-76.125
1772053508.0697224,-7.016709298534876e-15,-0.0,0.0,0.0,0.0,0.0,-0.0010908307824964518,0.03381575425739013,0.28361600344907856,23.9375,-0.6875000000000029,-76.5625
1772053508.100025,-7.016709298534876e-15,-0.0,0.0,0.0,0.0,0.0,-0.0010908307824964518,0.03381575425739013,0.28361600344907856,23.9375,-0.6875000000000029,-76.5625
1772053508.1350694,-7.016709298534876e-15,-0.0,0.0,0.0,0.0,0.0,-0.0010908307824964523,0.02945243112740431,0.28034351110158917,23.9375,-0.6875000000000029,-76.5625
1772053508.1725202,-7.016709298534876e-15,-0.0,0.0,0.0,0.0,0.0,0.008726646259971651,0.022907446432425576,0.2650718801466388,23.5625,-2.9375000000000027,-75.3125
1772053508.191628,-7.016709298534876e-15,-0.0,0.0,0.0,0.0,0.0,-0.0010908307824964523,0.02945243112740431,0.2628902185816459,23.5625,-2.9375000000000027,-75.3125
1772053508.2157123,-7.016709298534876e-15,-0.0,0.0,0.0,0.0,0.0,-0.0010908307824964523,0.02945243112740431,0.2628902185816459,23.5625,-2.9375000000000027,-75.3125
1772053508.2506564,-7.016709298534876e-15,-0.0,0.0,0.0,0.0,0.0,0.0010908307824964592,0.026179938779914945,0.2519819107566813,24.25,-1.8125000000000029,-76.125
1772053508.2708278,-7.016709298534876e-15,-0.0,0.0,0.0,0.0,0.0,0.008726646259971651,0.026179938779914945,0.2650718801466388,24.25,-1.8125000000000029,-76.125
1772053508.2974803,-7.016709298534876e-15,-0.0,0.0,0.0,0.0,0.0,2.6717648523913746e-18,0.02181661564992912,0.2781618495365963,24.25,-1.8125000000000029,-76.125
1772053508.3448958,-7.016709298534876e-15,-0.0,0.0,0.0,0.0,0.0,0.0021816615649929145,0.019634954084936207,0.26398104936414235,24.25,-2.187500000000003,-74.5625
1772053508.3837113,-7.016709298534876e-15,-0.0,0.0,0.0,0.0,0.0,0.005454153912482283,0.0272707695624114,0.23671027980173096,23.1875,-1.0625000000000029,-74.9375
1772053508.4194899,-7.016709298534876e-15,-0.0,0.0,0.0,0.0,0.0,0.00872664625997165,0.014180800172453926,0.23343778745424157,23.1875,-1.0625000000000029,-74.9375
1772053508.4547765,-7.016709298534876e-15,-0.0,0.0,0.0,0.0,0.0,0.011999138607461018,0.031634092692397225,0.24980024919168842,23.9375,-0.31250000000000294,-73.375
1772053508.4891703,-7.016709298534876e-15,-0.0,0.0,0.0,0.0,0.0,0.008726646259971651,0.02945243112740431,0.24980024919168842,23.9375,-0.31250000000000294,-73.375
1772053508.521682,-7.016709298534876e-15,-0.0,0.0,0.0,0.0,0.0,0.007635815477475194,0.017453292519943295,0.27379852640661045,23.9375,-0.31250000000000294,-73.375
1772053508.566435,-7.016709298534876e-15,-0.0,0.0,0.0,0.0,0.0,0.005454153912482282,0.022907446432425576,0.24652775684419906,24.25,-1.8125000000000029,-73.3125
1772053508.5893238,-7.016709298534876e-15,-0.0,0.0,0.0,0.0,0.0,0.0032724923474893703,0.016362461737446838,0.23234695667174513,24.25,-1.8125000000000029,-73.3125
1772053508.6211782,-7.016709298534876e-15,-0.0,0.0,0.0,0.0,0.0,0.0032724923474893703,0.017453292519943295,0.2279836335417593,23.5625,-1.0625000000000029,-73.75
1772053508.6507778,-7.016709298534876e-15,-0.0,0.0,0.0,0.0,0.0,-0.005454153912482279,0.008726646259971648,0.19853120241435498,23.5625,-1.0625000000000029,-73.75
1772053508.6733189,-7.016709298534876e-15,-0.0,0.0,0.0,0.0,0.0,-0.005454153912482279,0.008726646259971648,0.19853120241435498,23.5625,-1.0625000000000029,-73.75
1772053508.693354,-7.016709298534876e-15,-0.0,0.0,0.0,0.0,0.0,0.003272492347489371,0.02399827721492203,0.1832595714594046,22.8125,-1.0625000000000029,-72.9375
1772053508.721437,-7.016709298534876e-15,-0.0,0.0,0.0,0.0,0.0,0.0010908307824964568,0.007635815477475192,0.16035212502697901,22.8125,-1.0625000000000029,-72.9375
1772053508.7490048,-7.016709298534876e-15,-0.0,0.0,0.0,0.0,0.0,0.009817477042468105,0.015271630954950382,0.14944381720201447,22.8125,-1.0625000000000029,-72.9375
1772053508.7855344,-7.016709298534876e-15,-0.0,0.0,0.0,0.0,0.0,0.00545415391248228,0.002181661564992911,0.13853550937704992,23.1875,-0.31250000000000283,-72.9375
1772053508.8153503,-7.016709298534876e-15,-0.0,0.0,0.0,0.0,0.0,0.00545415391248228,0.002181661564992911,0.13853550937704992,23.1875,-0.31250000000000283,-72.9375
1772053508.8608797,-7.016709298534876e-15,-0.0,0.0,0.0,0.0,0.0,0.002181661564992916,0.031634092692397225,0.2650718801466388,23.1875,-0.6875000000000029,-74.9375
1772053508.914663,-7.016709298534876e-15,-0.0,0.0,0.0,0.0,0.0,0.006544984694978739,0.022907446432425576,0.19416787928436915,23.1875,-0.6875000000000029,-74.9375
1772053508.9467137,-7.016709298534876e-15,-0.0,0.0,0.0,0.0,0.0,-0.003272492347489367,0.011999138607461015,0.19962203319685143,22.4375,-0.6875000000000028,-72.5625
1772053508.9734232,-7.016709298534876e-15,-0.0,0.0,0.0,0.0,0.0,-0.0010908307824964566,-0.00545415391248228,0.16035212502697901,22.4375,-0.6875000000000028,-72.5625
1772053509.000591,-7.016709298534876e-15,-0.0,0.0,0.0,0.0,0.0,-0.010908307824964561,-0.020725784867432664,0.16798794050445423,22.4375,-0.6875000000000028,-72.5625
1772053509.0270338,-7.016709298534876e-15,-0.0,0.0,0.0,0.0,0.0,-0.00545415391248228,0.0010908307824964566,0.1341721862470641,23.5625,1.1249999999999971,-72.1875
1772053509.075853,-7.016709298534876e-15,-0.0,0.0,0.0,0.0,0.0,0.01199913860746102,0.038179077387375956,0.1090830782496456,23.5625,2.2499999999999973,-71.75
1772053509.120877,-7.016709298534876e-15,-0.0,0.0,0.0,0.0,0.0,0.020725784867432668,0.027270769562411395,0.1636246173744684,23.5625,2.2499999999999973,-71.75
1772053509.1662784,-7.016709298534876e-15,-0.0,0.0,0.0,0.0,0.0,0.0174532925199433,0.03490658503988659,0.15271630954950383,23.5625,2.2499999999999973,-71.75
1772053509.1867046,-7.016709298534876e-15,-0.0,0.0,0.0,0.0,0.0,0.0174532925199433,0.03490658503988659,0.15271630954950383,23.5625,2.2499999999999973,-71.75
1772053509.2141948,-7.016709298534876e-15,-0.0,0.0,0.0,0.0,0.0,-0.005454153912482278,0.011999138607461015,0.13308135546456762,23.9375,2.999999999999997,-70.5625
1772053509.283712,-7.016709298534876e-15,-0.0,0.0,0.0,0.0,0.0,-0.014180800172453926,0.007635815477475194,0.13526301702956053,23.5625,2.6249999999999973,-70.9375
1772053509.3128884,-7.016709298534876e-15,-0.0,0.0,0.0,0.0,0.0,0.0272707695624114,0.005454153912482276,0.10690141668465268,23.5625,2.6249999999999973,-70.9375
1772053509.3682077,-7.016709298534876e-15,-0.0,0.0,0.0,0.0,0.0,0.007635815477475194,0.011999138607461013,0.11780972450961724,25.375,4.437499999999997,-70.5625
1772053509.409962,-7.016709298534876e-15,-0.0,0.0,0.0,0.0,0.0,2.2710001245326687e-18,0.018544123302439753,0.1308996938995747,25.375,4.437499999999997,-70.5625
1772053509.4763782,-7.016709298534876e-15,-0.0,0.0,0.0,0.0,0.0,0.011999138607461017,0.014180800172453926,0.05999569303730508,24.25,4.812499999999997,-69.0
1772053509.536582,-7.016709298534876e-15,-0.0,0.0,0.0,0.0,0.0,0.011999138607461017,0.014180800172453926,0.05999569303730508,24.25,4.812499999999997,-69.0
1772053509.6068814,-7.016709298534876e-15,-0.0,0.0,0.0,0.0,0.0,0.002181661564992914,0.017453292519943295,0.08944812416470939,23.9375,4.812499999999997,-71.0
1772053509.6382318,-7.016709298534876e-15,-0.0,0.0,0.0,0.0,0.0,0.0021816615649929137,0.013089969389957472,0.10799224746714914,25.375,6.312499999999997,-69.75
1772053509.6581264,-7.016709298534876e-15,-0.0,0.0,0.0,0.0,0.0,0.02072578486743266,-0.01636246173744684,0.12108221685710661,25.375,6.312499999999997,-69.75
1772053509.6776848,-7.016709298534876e-15,-0.0,0.0,0.0,0.0,0.0,0.001090830782496459,0.025089107997418487,0.08508480103472356,25.0,5.937499999999997,-70.5625
1772053509.754809,-7.016709298534876e-15,-0.0,0.0,0.0,0.0,0.0,-0.0032724923474893677,0.0032724923474893686,0.06326818538479445,26.125,7.3749999999999964,-71.0
1772053509.839805,-7.016709298534876e-15,-0.0,0.0,0.0,0.0,0.0,0.005454153912482282,0.018544123302439753,0.09053895494720585,26.125,7.3749999999999964,-71.0
1772053509.8709192,-7.016709298534876e-15,-0.0,0.0,0.0,0.0,0.0,-0.015271630954950384,1.8702353966739624e-18,0.07090400086226964,26.125,9.249999999999996,-71.75
1772053509.9062393,-7.016709298534876e-15,-0.0,0.0,0.0,0.0,0.0,0.0010908307824964564,0.003272492347489368,0.07744898555724837,26.125,9.249999999999996,-71.75
1772053509.9620135,-7.016709298534876e-15,-0.0,0.0,0.0,0.0,0.0,-0.0054541539124822805,-0.005454153912482279,0.04036073895236887,27.5625,10.687499999999996,-70.5625
1772053510.0169046,-7.016709298534876e-15,-0.0,0.0,0.0,0.0,0.0,-0.009817477042468103,1.2022941835761186e-18,0.05672320068981571,27.5625,10.687499999999996,-70.5625
1772053510.0305283,-7.016709298534876e-15,-0.0,0.0,0.0,0.0,0.0,0.006544984694978737,0.009817477042468103,0.01090830782496456,27.25,10.312499999999996,-71.375
1772053510.0570107,-7.016709298534876e-15,-0.0,0.0,0.0,0.0,0.0,0.011999138607461015,-1.469470668815256e-18,0.044724062082354694,27.25,10.312499999999996,-71.375
1772053510.0794845,-7.016709298534876e-15,-0.0,0.0,0.0,0.0,0.0,0.013089969389957472,-0.0010908307824964575,0.031634092692397225,27.25,10.312499999999996,-71.375
1772053510.1121364,-7.016709298534876e-15,-0.0,0.0,0.0,0.0,0.0,0.02399827721492203,-2.938941337630512e-18,0.05345070834232634,27.25,9.624999999999996,-70.9375
1772053510.1612234,-7.016709298534876e-15,-0.0,0.0,0.0,0.0,0.0,-0.00872664625997165,-0.015271630954950382,0.044724062082354694,27.25,9.624999999999996,-70.9375
1772053510.1899648,-7.016709298534876e-15,-0.0,0.0,0.0,0.0,0.0,0.0054541539124822805,0.009817477042468103,0.02181661564992912,27.25,9.999999999999996,-72.9375
1772053510.224972,-7.016709298534876e-15,-0.0,0.0,0.0,0.0,0.0,0.006544984694978737,0.005454153912482279,0.002181661564992912,27.25,9.999999999999996,-72.9375
1772053510.3075635,-7.016709298534876e-15,-0.0,0.0,0.0,0.0,0.0,0.009817477042468103,0.004363323129985823,0.01090830782496456,27.9375,10.687499999999996,-72.5625
1772053510.3596163,-7.016709298534876e-15,-0.0,0.0,0.0,0.0,0.0,0.007635815477475194,0.011999138607461013,0.015271630954950384,29.4375,11.062499999999996,-74.5625
1772053510.3878832,-7.016709298534876e-15,-0.0,0.0,0.0,0.0,0.0,0.013089969389957472,0.0010908307824964544,0.003272492347489368,29.4375,11.062499999999996,-74.5625
1772053510.4277937,-7.016709298534876e-15,-0.0,0.0,0.0,0.0,0.0,0.013089969389957472,0.0010908307824964544,0.003272492347489368,29.4375,11.062499999999996,-74.5625
1772053510.504853,-7.016709298534876e-15,-0.0,0.0,0.0,0.0,0.0,-5.343529704782749e-19,-0.004363323129985824,0.002181661564992912,31.25,11.812499999999996,-76.125
1772053510.560908,-7.016709298534876e-15,-0.0,0.0,0.0,0.0,0.0,-5.343529704782749e-19,-0.004363323129985824,0.002181661564992912,31.25,11.812499999999996,-76.125
1772053510.5846462,-7.016709298534876e-15,-0.0,0.0,0.0,0.0,0.0,0.01090830782496456,-0.0021816615649929132,0.011999138607461015,31.25,12.187499999999996,-78.5
1772053510.6062279,-7.016709298534876e-15,-0.0,0.0,0.0,0.0,0.0,0.01090830782496456,-0.0021816615649929132,0.011999138607461015,31.25,12.187499999999996,-78.5
1772053510.6727078,-7.016709298534876e-15,-0.0,0.0,0.0,0.0,0.0,0.014180800172453928,0.00218166156499291,-0.004363323129985824,30.1875,11.437499999999996,-78.5
1772053510.735299,-7.016709298534876e-15,-0.0,0.0,0.0,0.0,0.0,0.014180800172453928,0.00218166156499291,-0.004363323129985824,30.1875,11.437499999999996,-78.5
1772053510.8362868,-7.016709298534876e-15,-0.0,0.0,0.0,0.0,0.0,0.010908307824964561,0.008726646259971646,-0.05890486225480862,30.875,11.437499999999996,-80.875
1772053510.8830166,-7.016709298534876e-15,-0.0,0.0,0.0,0.0,0.0,0.01090830782496456,-0.005454153912482281,-0.009817477042468103,32.0,12.187499999999996,-82.4375
1772053510.926294,-7.016709298534876e-15,-0.0,0.0,0.0,0.0,0.0,0.017453292519943295,-0.006544984694978738,-0.07635815477475191,32.0,12.187499999999996,-82.4375
1772053510.9936838,-7.016709298534876e-15,-0.0,0.0,0.0,0.0,0.0,0.016362461737446838,-0.0032724923474893703,-0.05890486225480862,31.625,11.437499999999996,-83.25
1772053511.0407212,-7.016709298534876e-15,-0.0,0.0,0.0,0.0,0.0,0.016362461737446838,-0.0032724923474893703,-0.05890486225480862,31.625,11.437499999999996,-83.25
1772053511.0993717,-7.016709298534876e-15,-0.0,0.0,0.0,0.0,0.0,-0.019634954084936204,0.03490658503988659,-0.0818123086872342,33.125,10.687499999999996,-84.4375
1772053511.1726532,-7.016709298534876e-15,-0.0,0.0,0.0,0.0,0.0,-0.014180800172453928,-0.0010908307824964542,-0.09599310885968812,31.25,10.312499999999996,-84.0
1772053511.2178922,-7.016709298534876e-15,-0.0,0.0,0.0,0.0,0.0,-0.014180800172453928,-0.0010908307824964542,-0.09599310885968812,31.25,10.312499999999996,-84.0
1772053511.2714317,-7.016709298534876e-15,-0.0,0.0,0.0,0.0,0.0,0.007635815477475192,-0.0010908307824964568,-0.06435901616729091,32.375,10.312499999999996,-84.4375
1772053511.3736098,-7.016709298534876e-15,-0.0,0.0,0.0,0.0,0.0,0.007635815477475191,-0.007635815477475193,-0.07963064712224129,33.125,9.249999999999996,-86.0
1772053511.4149525,-7.016709298534876e-15,-0.0,0.0,0.0,0.0,0.0,0.007635815477475191,-0.007635815477475193,-0.07963064712224129,33.125,9.249999999999996,-86.0
1772053511.4587998,-7.016709298534876e-15,-0.0,0.0,0.0,0.0,0.0,-0.0010908307824964573,-0.01090830782496456,-0.09490227807719166,34.25,8.124999999999996,-85.625
1772053511.5293264,-7.016709298534876e-15,-0.0,0.0,0.0,0.0,0.0,-0.0010908307824964573,-0.01090830782496456,-0.09490227807719166,34.25,8.124999999999996,-85.625
1772053511.5735636,-7.016709298534876e-15,-0.0,0.0,0.0,0.0,0.0,-0.001090830782496456,1.3358824261956874e-19,-0.11126473981463851,33.5,8.124999999999996,-85.625
1772053511.6080894,-7.016709298534876e-15,-0.0,0.0,0.0,0.0,0.0,-0.001090830782496456,1.3358824261956874e-19,-0.11126473981463851,33.5,8.124999999999996,-85.625
1772053511.6505783,-7.016709298534876e-15,-0.0,0.0,0.0,0.0,0.0,-0.007635815477475192,9.351176983369812e-19,-0.09490227807719166,33.5,7.749999999999996,-86.4375
1772053511.6788192,-7.016709298534876e-15,-0.0,0.0,0.0,0.0,0.0,0.007635815477475194,0.011999138607461013,-0.07090400086226964,33.5,7.749999999999996,-86.4375
1772053511.7100232,-7.016709298534876e-15,-0.0,0.0,0.0,0.0,0.0,-0.010908307824964558,0.01418080017245393,-0.05781403147231216,34.5625,5.937499999999996,-86.8125
1772053511.766246,-7.016709298534876e-15,-0.0,0.0,0.0,0.0,0.0,-0.003272492347489367,0.009817477042468103,-0.07853981633974483,34.5625,5.937499999999996,-86.8125
1772053511.8154712,-7.016709298534876e-15,-0.0,0.0,0.0,0.0,0.0,0.009817477042468102,-0.016362461737446838,-0.10144726277217041,34.9375,5.562499999999996,-88.4375
1772053511.9194436,-7.016709298534876e-15,-0.0,0.0,0.0,0.0,0.0,-1.2022941835761186e-18,-0.009817477042468103,-0.10362892433716332,32.75,6.312499999999996,-86.8125
1772053512.0030053,-7.016709298534876e-15,-0.0,0.0,0.0,0.0,0.0,-0.004363323129985825,-0.009817477042468103,-0.08835729338221293,34.5625,5.562499999999996,-89.25
1772053512.0533934,-7.016709298534876e-15,-0.0,0.0,0.0,0.0,0.0,1.3358824261956874e-19,0.001090830782496456,-0.10471975511965978,34.5625,5.562499999999996,-89.25
1772053512.0860593,-7.016709298534876e-15,-0.0,0.0,0.0,0.0,0.0,0.0065449846949787345,-0.01090830782496456,-0.08617563181722002,33.5,5.187499999999996,-87.625
1772053512.1079564,-7.016709298534876e-15,-0.0,0.0,0.0,0.0,0.0,0.01090830782496456,0.003272492347489367,-0.10362892433716332,33.5,5.187499999999996,-87.625
1772053512.1270893,-7.016709298534876e-15,-0.0,0.0,0.0,0.0,0.0,0.00545415391248228,0.0010908307824964553,-0.07526732399225546,34.5625,4.812499999999996,-88.0
1772053512.1878219,-7.016709298534876e-15,-0.0,0.0,0.0,0.0,0.0,0.007635815477475194,0.01308996938995747,-0.08617563181722002,34.5625,4.812499999999996,-88.0
1772053512.225745,-7.016709298534876e-15,-0.0,0.0,0.0,0.0,0.0,-0.00545415391248228,6.679412130978437e-19,-0.07635815477475191,34.9375,5.187499999999996,-88.4375
1772053512.286204,-7.016709298534876e-15,-0.0,0.0,0.0,0.0,0.0,0.05345070834232634,-6.545823888358868e-18,-0.07963064712224129,34.9375,5.187499999999996,-88.4375
1772053512.32052,-7.016709298534876e-15,-0.0,0.0,0.0,0.0,0.0,0.07308566242726255,-0.0043633231299858325,-0.0545415391248228,34.5625,4.062499999999996,-88.4375
1772053512.367288,-7.016709298534876e-15,-0.0,0.0,0.0,0.0,0.0,-0.10471975511965977,0.08399397025222713,0.04690572364734761,34.5625,4.062499999999996,-88.4375
1772053512.3861225,-7.016709298534876e-15,-0.0,0.0,0.0,0.0,0.0,0.028361600344907867,0.08508480103472356,-0.009817477042468103,34.5625,4.812499999999996,-88.0
1772053512.4360602,-7.016709298534876e-15,-0.0,0.0,0.0,0.0,0.0,0.15162547876700738,0.07963064712224127,0.08508480103472356,34.5625,4.812499999999996,-88.0
1772053512.4831035,-7.016709298534876e-15,-0.0,0.0,0.0,0.0,0.0,0.01090830782496454,-0.1538071403320003,-0.12762720155208535,35.6875,1.8749999999999956,-88.4375
1772053512.5138319,-7.016709298534876e-15,-0.0,0.0,0.0,0.0,0.0,-0.0032724923474893746,-0.05235987755982989,-0.11235557059713497,35.6875,1.8749999999999956,-88.4375
1772053512.5731182,-7.016709298534876e-15,-0.0,0.0,0.0,0.0,0.0,0.062177354602297986,-0.05017821599483698,0.004363323129985824,36.8125,2.9999999999999956,-89.625
1772053512.6446226,-7.016709298534876e-15,-0.0,0.0,0.0,0.0,0.0,0.08617563181722002,-0.053450708342326354,-0.032724923474893676,36.8125,2.9999999999999956,-89.625
1772053512.6678126,-7.016709298534876e-15,-0.0,0.0,0.0,0.0,0.0,0.055632369907319255,-0.021816615649929125,-0.019634954084936207,34.9375,1.4999999999999958,-88.4375
1772053512.68609,-7.016709298534876e-15,-0.0,0.0,0.0,0.0,0.0,-0.1341721862470641,0.05454153912482281,0.007635815477475192,34.9375,1.4999999999999958,-88.4375
1772053512.722862,-7.016709298534876e-15,-0.0,0.0,0.0,0.0,0.0,-0.01636246173744685,-0.08617563181722002,-0.07090400086226964,34.25,3.374999999999996,-88.8125
1772053512.7843246,-7.016709298534876e-15,-0.0,0.0,0.0,0.0,0.0,0.02508910799741849,0.03381575425739013,0.016362461737446838,36.4375,0.7499999999999956,-89.625
1772053512.8131366,-7.016709298534876e-15,-0.0,0.0,0.0,0.0,0.0,0.02072578486743267,0.055632369907319255,-0.04581489286485115,36.4375,0.7499999999999956,-89.625
1772053512.8883202,-7.016709298534876e-15,-0.0,0.0,0.0,0.0,0.0,-0.04254240051736177,0.03163409269239723,0.12435470920459599,36.4375,0.37499999999999556,-89.25
1772053512.916776,-7.016709298534876e-15,-0.0,0.0,0.0,0.0,0.0,-0.0469057236473476,0.035997415822383055,-0.13962634015954636,36.4375,0.37499999999999556,-89.25
1772053513.0206876,-7.016709298534876e-15,-0.0,0.0,0.0,0.0,0.0,-0.019634954084936204,0.01418080017245393,-0.04581489286485115,37.875,-4.6383497517706e-15,-89.25
1772053513.156861,-7.016709298534876e-15,-0.0,0.0,0.0,0.0,0.0,0.002181661564992911,-0.00545415391248228,-0.017453292519943295,36.4375,-4.462306774393168e-15,-88.4375
1772053513.247763,-7.016709298534876e-15,-0.0,0.0,0.0,0.0,0.0,0.0032724923474893664,-0.014180800172453928,-0.011999138607461015,37.1875,0.37499999999999545,-88.4375
1772053513.3198383,-7.016709298534876e-15,-0.0,0.0,0.0,0.0,0.0,0.003272492347489369,0.006544984694978736,0.028361600344907856,36.4375,0.37499999999999556,-88.4375
1772053513.4556584,-7.016709298534876e-15,-0.0,0.0,0.0,0.0,0.0,-0.003272492347489367,0.01090830782496456,0.07744898555724837,36.0625,-0.6875000000000044,-88.0
1772053513.5192645,-7.016709298534876e-15,-0.0,0.0,0.0,0.0,0.0,0.01418080017245393,0.02072578486743266,0.04254240051736178,36.0625,-0.31250000000000444,-88.8125
1772053513.5905085,-7.016709298534876e-15,-0.0,0.0,0.0,0.0,0.0,1.2022941835761186e-18,0.009817477042468103,0.06981317007977318,36.0625,-0.31250000000000444,-88.8125
1772053513.665385,-7.016709298534876e-15,-0.0,0.0,0.0,0.0,0.0,0.02181661564992912,-0.0021816615649929145,0.014180800172453928,35.3125,-0.6875000000000043,-87.625
1772053513.7397926,-7.016709298534876e-15,-0.0,0.0,0.0,0.0,0.0,-0.045814892864851145,0.030543261909900775,0.09926560120717749,36.4375,-2.5625000000000044,-86.8125
1772053513.7993083,-7.016709298534876e-15,-0.0,0.0,0.0,0.0,0.0,-0.045814892864851145,0.030543261909900775,0.09926560120717749,36.4375,-2.5625000000000044,-86.8125
1772053513.8317678,-7.016709298534876e-15,-0.0,0.0,0.0,0.0,0.0,-0.0010908307824964555,0.004363323129985824,0.00545415391248228,37.1875,-1.8125000000000047,-88.0
1772053513.882237,-7.016709298534876e-15,-0.0,0.0,0.0,0.0,0.0,0.030543261909900764,-0.027270769562411402,0.02399827721492203,37.1875,-1.8125000000000047,-88.0
1772053513.916582,-7.016709298534876e-15,-0.0,0.0,0.0,0.0,0.0,-0.004363323129985823,0.008726646259971648,0.00545415391248228,35.3125,-1.0625000000000042,-88.0
1772053513.9617736,-7.016709298534876e-15,-0.0,0.0,0.0,0.0,0.0,0.002181661564992911,-0.00545415391248228,-0.03490658503988659,35.3125,-1.0625000000000042,-88.0
1772053514.024617,-7.016709298534876e-15,-0.0,0.0,0.0,0.0,0.0,0.002181661564992912,0.0010908307824964558,-0.001090830782496456,35.3125,-2.1875000000000044,-87.25
1772053514.081102,-7.016709298534876e-15,-0.0,0.0,0.0,0.0,0.0,-0.0065449846949787345,0.01090830782496456,0.00545415391248228,35.3125,-2.1875000000000044,-87.25
1772053514.1199522,-7.016709298534876e-15,-0.0,0.0,0.0,0.0,0.0,0.009817477042468105,0.008726646259971646,0.009817477042468103,35.3125,-2.1875000000000044,-88.0
1772053514.1561098,-7.016709298534876e-15,-0.0,0.0,0.0,0.0,0.0,0.009817477042468098,-0.038179077387375956,-0.05235987755982989,35.3125,-2.1875000000000044,-88.0
1772053514.2097769,-7.016709298534876e-15,-0.0,0.0,0.0,0.0,0.0,-0.05781403147231216,0.010908307824964566,0.013089969389957472,36.4375,-1.4375000000000044,-85.625
1772053514.2718961,-7.016709298534876e-15,-0.0,0.0,0.0,0.0,0.0,-0.05781403147231216,0.010908307824964566,0.013089969389957472,36.4375,-1.4375000000000044,-85.625
1772053514.3006258,-7.016709298534876e-15,-0.0,0.0,0.0,0.0,0.0,0.008726646259971644,-0.028361600344907856,-0.037088246604879506,34.9375,-1.4375000000000042,-88.0
1772053514.3396907,-7.016709298534876e-15,-0.0,0.0,0.0,0.0,0.0,0.009817477042468107,0.03381575425739013,0.020725784867432664,34.9375,-1.4375000000000042,-88.0
1772053514.3811886,-7.016709298534876e-15,-0.0,0.0,0.0,0.0,0.0,-0.038179077387375956,0.0021816615649929167,0.050178215994836975,35.3125,-0.6875000000000043,-86.4375
1772053514.4043694,-7.016709298534876e-15,-0.0,0.0,0.0,0.0,0.0,-0.038179077387375956,0.0021816615649929167,0.050178215994836975,35.3125,-0.6875000000000043,-86.4375
1772053514.4287949,-7.016709298534876e-15,-0.0,0.0,0.0,0.0,0.0,-0.01418080017245393,-0.010908307824964558,-0.04581489286485115,36.4375,-1.0625000000000044,-87.625
1772053514.4804947,-7.016709298534876e-15,-0.0,0.0,0.0,0.0,0.0,0.023998277214922033,0.017453292519943292,-0.0272707695624114,36.4375,-1.0625000000000044,-87.625
1772053514.5164871,-7.016709298534876e-15,-0.0,0.0,0.0,0.0,0.0,-0.005454153912482282,-0.018544123302439753,-0.03381575425739013,36.4375,-1.8125000000000044,-87.25
1772053514.5517402,-7.016709298534876e-15,-0.0,0.0,0.0,0.0,0.0,-0.015271630954950382,0.011999138607461017,-0.09053895494720585,36.4375,-1.8125000000000044,-87.25
1772053514.602148,-7.016709298534876e-15,-0.0,0.0,0.0,0.0,0.0,-0.0010908307824964562,-0.002181661564992912,-0.04145156973486533,35.3125,-0.6875000000000043,-87.25
1772053514.6274862,-7.016709298534876e-15,-0.0,0.0,0.0,0.0,0.0,0.006544984694978736,0.0032724923474893673,-0.018544123302439753,35.3125,-0.6875000000000043,-87.25
1772053514.6853845,-7.016709298534876e-15,-0.0,0.0,0.0,0.0,0.0,-0.03817907738737595,0.029452431127404314,-0.0545415391248228,36.8125,0.7499999999999954,-88.8125
1772053514.6991048,-7.016709298534876e-15,-0.0,0.0,0.0,0.0,0.0,-0.03817907738737595,0.029452431127404314,-0.0545415391248228,36.8125,0.7499999999999954,-88.8125
1772053514.7179515,-7.016709298534876e-15,-0.0,0.0,0.0,0.0,0.0,0.008726646259971646,-0.007635815477475193,-0.039269908169872414,36.8125,0.7499999999999954,-88.8125
1772053514.759386,-7.016709298534876e-15,-0.0,0.0,0.0,0.0,0.0,0.002181661564992911,-0.00545415391248228,-0.04908738521234052,35.6875,-1.0625000000000044,-87.25
1772053514.8553789,-7.016709298534876e-15,-0.0,0.0,0.0,0.0,0.0,-0.0032724923474893673,0.008726646259971648,-0.003272492347489368,36.0625,0.37499999999999556,-88.4375
1772053514.9142754,-7.016709298534876e-15,-0.0,0.0,0.0,0.0,0.0,1.0687059409565499e-18,0.008726646259971648,-0.015271630954950384,36.0625,0.37499999999999556,-88.4375
1772053514.9738584,-7.016709298534876e-15,-0.0,0.0,0.0,0.0,0.0,-0.004363323129985824,-0.0021816615649929115,0.00545415391248228,36.4375,1.1249999999999956,-89.1875
1772053515.0106604,-7.016709298534876e-15,-0.0,0.0,0.0,0.0,0.0,-0.009817477042468103,-0.0010908307824964547,0.013089969389957472,36.4375,1.1249999999999956,-89.1875
1772053515.0720115,-7.016709298534876e-15,-0.0,0.0,0.0,0.0,0.0,-0.014180800172453926,0.01418080017245393,-0.006544984694978736,35.3125,0.7499999999999957,-88.4375
1772053515.119503,-7.016709298534876e-15,-0.0,0.0,0.0,0.0,0.0,0.01418080017245393,0.008726646259971646,0.039269908169872414,35.3125,0.7499999999999957,-88.4375
1772053515.1509366,-7.016709298534876e-15,-0.0,0.0,0.0,0.0,0.0,0.010908307824964561,0.00763581547747519,0.0,34.9375,2.6249999999999956,-88.8125
1772053515.2063959,-7.016709298534876e-15,-0.0,0.0,0.0,0.0,0.0,-0.014180800172453928,1.736647154054394e-18,0.038179077387375956,34.9375,2.6249999999999956,-88.8125
1772053515.2651625,-7.016709298534876e-15,-0.0,0.0,0.0,0.0,0.0,-0.002181661564992913,-0.006544984694978736,-0.002181661564992912,34.9375,0.3749999999999957,-89.1875
1772053515.3224869,-7.016709298534876e-15,-0.0,0.0,0.0,0.0,0.0,-4.007647278587063e-19,-0.003272492347489368,-0.003272492347489368,36.8125,2.9999999999999956,-90.0
1772053515.386991,-7.016709298534876e-15,-0.0,0.0,0.0,0.0,0.0,-0.015271630954950384,-0.004363323129985822,-0.003272492347489368,36.8125,2.9999999999999956,-90.0
1772053515.4374037,-7.016709298534876e-15,-0.0,0.0,0.0,0.0,0.0,0.005454153912482281,0.015271630954950384,-0.004363323129985824,35.3125,3.3749999999999956,-90.375
1772053515.4937398,-7.016709298534876e-15,-0.0,0.0,0.0,0.0,0.0,-0.004363323129985825,-0.005454153912482279,-0.02181661564992912,35.3125,3.3749999999999956,-90.375
1772053515.5477886,-7.016709298534876e-15,-0.0,0.0,0.0,0.0,0.0,-0.008726646259971648,-0.0010908307824964549,-0.04145156973486533,35.3125,2.9999999999999956,-88.0
1772053515.6155457,-7.016709298534876e-15,-0.0,0.0,0.0,0.0,0.0,-0.008726646259971648,-0.0010908307824964549,-0.04145156973486533,35.3125,2.9999999999999956,-88.0
1772053515.6789138,-7.016709298534876e-15,-0.0,0.0,0.0,0.0,0.0,-0.009817477042468105,-0.015271630954950382,-0.08290313946973066,36.0625,5.187499999999996,-88.4375
1772053515.7279212,-7.016709298534876e-15,-0.0,0.0,0.0,0.0,0.0,-0.006544984694978737,-0.004363323129985823,-0.06654067773228381,33.5,4.437499999999996,-88.0
1772053515.768833,-7.016709298534876e-15,-0.0,0.0,0.0,0.0,0.0,-5.343529704782749e-19,-0.004363323129985824,-0.12871803233458182,33.5,4.437499999999996,-88.0
1772053515.8131437,-7.016709298534876e-15,-0.0,0.0,0.0,0.0,0.0,-0.007635815477475192,-0.0032724923474893673,-0.08835729338221293,33.5,4.437499999999996,-88.0
1772053515.8620787,-7.016709298534876e-15,-0.0,0.0,0.0,0.0,0.0,-0.004363323129985825,-0.004363323129985823,-0.08399397025222712,35.3125,7.374999999999996,-88.8125
1772053515.9276533,-7.016709298534876e-15,-0.0,0.0,0.0,0.0,0.0,-0.007635815477475193,-0.008726646259971646,-0.13962634015954636,35.3125,7.374999999999996,-88.8125
1772053515.9780016,-7.016709298534876e-15,-0.0,0.0,0.0,0.0,0.0,-0.02617993877991495,-0.017453292519943292,-0.15817046346198613,35.6875,5.562499999999996,-87.25
1772053516.0083258,-7.016709298534876e-15,-0.0,0.0,0.0,0.0,0.0,-0.010908307824964561,-0.015271630954950382,-0.16580627893946132,35.6875,5.562499999999996,-87.25
1772053516.0317876,-7.016709298534876e-15,-0.0,0.0,0.0,0.0,0.0,-0.010908307824964561,-0.015271630954950382,-0.16580627893946132,35.6875,5.562499999999996,-87.25
1772053516.0657032,-7.016709298534876e-15,-0.0,0.0,0.0,0.0,0.0,0.0021816615649929093,-0.019634954084936207,-0.3272492347489368,35.3125,5.562499999999996,-86.8125
1772053516.1007528,-7.016709298534876e-15,-0.0,0.0,0.0,0.0,0.0,0.0021816615649929093,-0.019634954084936207,-0.3272492347489368,35.3125,5.562499999999996,-86.8125
1772053516.1349072,-7.016709298534876e-15,-0.0,0.0,0.0,0.0,0.0,0.0010908307824964538,-0.017453292519943295,-0.28688849579656794,33.125,4.437499999999996,-87.25
1772053516.1724508,-7.016709298534876e-15,-0.0,0.0,0.0,0.0,0.0,-0.01418080017245393,-0.015271630954950382,-0.20180369476184434,33.125,4.437499999999996,-87.25
1772053516.2093356,-7.016709298534876e-15,-0.0,0.0,0.0,0.0,0.0,0.00218166156499291,-0.013089969389957472,-0.22362031041177347,33.5,6.999999999999996,-86.8125
1772053516.273727,-7.016709298534876e-15,-0.0,0.0,0.0,0.0,0.0,-3.740470793347925e-18,-0.030543261909900768,-0.24652775684419906,33.875,6.312499999999996,-86.4375
1772053516.2966707,-7.016709298534876e-15,-0.0,0.0,0.0,0.0,0.0,-0.014180800172453928,-0.0065449846949787345,-0.24652775684419906,33.875,6.312499999999996,-86.4375
1772053516.3123994,-7.016709298534876e-15,-0.0,0.0,0.0,0.0,0.0,-0.014180800172453928,-0.0065449846949787345,-0.24652775684419906,33.875,6.312499999999996,-86.4375
1772053516.3368535,-7.016709298534876e-15,-0.0,0.0,0.0,0.0,0.0,-0.015271630954950386,-0.017453292519943292,-0.23343778745424157,33.875,8.124999999999996,-86.4375
1772053516.3815284,-7.016709298534876e-15,-0.0,0.0,0.0,0.0,0.0,-0.004363323129985827,-0.0272707695624114,-0.2083486794568231,33.875,8.124999999999996,-86.4375
1772053516.4134178,-7.016709298534876e-15,-0.0,0.0,0.0,0.0,0.0,-0.01963495408493621,-0.022907446432425572,-0.25416357232167425,32.75,7.749999999999996,-87.25
1772053516.4812143,-7.016709298534876e-15,-0.0,0.0,0.0,0.0,0.0,0.0021816615649929106,-0.009817477042468103,-0.24434609527920614,32.75,7.749999999999996,-87.25
1772053516.5265243,-7.016709298534876e-15,-0.0,0.0,0.0,0.0,0.0,0.0010908307824964542,-0.014180800172453928,-0.24870941840919197,35.3125,8.874999999999996,-83.25
1772053516.604933,-7.016709298534876e-15,-0.0,0.0,0.0,0.0,0.0,-0.0174532925199433,-0.022907446432425572,-0.2454369260617026,32.0,8.124999999999996,-85.25
1772053516.6491098,-7.016709298534876e-15,-0.0,0.0,0.0,0.0,0.0,0.027270769562411395,-0.04036073895236887,-0.17562375598192942,32.0,8.124999999999996,-85.25
1772053516.7097828,-7.016709298534876e-15,-0.0,0.0,0.0,0.0,0.0,-0.007635815477475194,-0.016362461737446838,-0.28034351110158917,33.5,8.499999999999996,-84.8125
1772053516.753134,-7.016709298534876e-15,-0.0,0.0,0.0,0.0,0.0,0.0010908307824964518,-0.03381575425739013,-0.2519819107566813,31.625,7.3749999999999964,-83.625
1772053516.7939887,-7.016709298534876e-15,-0.0,0.0,0.0,0.0,0.0,0.0010908307824964518,-0.03381575425739013,-0.2519819107566813,31.625,7.3749999999999964,-83.625
1772053516.827699,-7.016709298534876e-15,-0.0,0.0,0.0,0.0,0.0,0.0010908307824964542,-0.014180800172453928,-0.2399827721492203,31.625,7.3749999999999964,-83.625
1772053516.890127,-7.016709298534876e-15,-0.0,0.0,0.0,0.0,0.0,-0.009817477042468103,-0.0021816615649929106,-0.21707532571679475,32.75,8.499999999999996,-84.0
1772053516.9326708,-7.016709298534876e-15,-0.0,0.0,0.0,0.0,0.0,-0.013089969389957476,-0.02399827721492203,-0.2476185876266955,32.75,8.499999999999996,-84.0
1772053516.955706,-7.016709298534876e-15,-0.0,0.0,0.0,0.0,0.0,-0.002181661564992916,-0.031634092692397225,-0.28361600344907856,30.5625,9.249999999999996,-82.875
1772053517.0079565,-7.016709298534876e-15,-0.0,0.0,0.0,0.0,0.0,-0.020725784867432668,-0.02617993877991494,-0.21489366415180183,30.5625,9.249999999999996,-82.875
1772053517.0545511,-7.016709298534876e-15,-0.0,0.0,0.0,0.0,0.0,-0.009817477042468107,-0.02399827721492203,-0.20725784867432664,31.625,9.249999999999996,-82.0625
1772053517.0880585,-7.016709298534876e-15,-0.0,0.0,0.0,0.0,0.0,-2.2710001245326687e-18,-0.018544123302439753,-0.19525871006686563,31.625,9.249999999999996,-82.0625
1772053517.1102388,-7.016709298534876e-15,-0.0,0.0,0.0,0.0,0.0,-0.007635815477475195,-0.02181661564992912,-0.21380283336930536,31.625,9.249999999999996,-82.0625
1772053517.1257865,-7.016709298534876e-15,-0.0,0.0,0.0,0.0,0.0,-0.018544123302439756,-0.019634954084936204,-0.22580197197676638,30.5625,9.624999999999996,-81.25
1772053517.1412876,-7.016709298534876e-15,-0.0,0.0,0.0,0.0,0.0,-0.00327249234748937,-0.015271630954950384,-0.19853120241435498,30.5625,9.624999999999996,-81.25
1772053517.1634905,-7.016709298534876e-15,-0.0,0.0,0.0,0.0,0.0,-0.01418080017245393,-0.010908307824964558,-0.20616701789183017,30.5625,9.624999999999996,-81.25
1772053517.181748,-7.016709298534876e-15,-0.0,0.0,0.0,0.0,0.0,-0.01418080017245393,-0.010908307824964558,-0.20616701789183017,30.5625,9.624999999999996,-81.25
1772053517.2296846,-7.016709298534876e-15,-0.0,0.0,0.0,0.0,0.0,-0.002181661564992913,-0.00545415391248228,-0.17562375598192942,32.0,11.062499999999996,-80.875
1772053517.2657826,-7.016709298534876e-15,-0.0,0.0,0.0,0.0,0.0,-0.014180800172453928,0.005454153912482281,-0.20180369476184434,32.0,11.062499999999996,-80.875
1772053517.2932117,-7.016709298534876e-15,-0.0,0.0,0.0,0.0,0.0,-0.01636246173744684,-0.019634954084936204,-0.22907446432425577,31.25,9.999999999999996,-80.8125
1772053517.3167472,-7.016709298534876e-15,-0.0,0.0,0.0,0.0,0.0,-0.01090830782496456,-0.0065449846949787345,-0.2203478180642841,31.25,9.999999999999996,-80.8125
1772053517.3631012,-7.016709298534876e-15,-0.0,0.0,0.0,0.0,0.0,-0.017453292519943295,-0.011999138607461013,-0.21598449493429828,30.5625,9.999999999999996,-80.0625
1772053517.3933895,-7.016709298534876e-15,-0.0,0.0,0.0,0.0,0.0,-0.00654498469497874,-0.026179938779914945,-0.20289452554434081,30.5625,9.999999999999996,-80.0625
1772053517.4555194,-7.016709298534876e-15,-0.0,0.0,0.0,0.0,0.0,0.0032724923474893655,-0.019634954084936207,-0.16798794050445423,30.9375,9.624999999999996,-78.5
1772053517.4862201,-7.016709298534876e-15,-0.0,0.0,0.0,0.0,0.0,-2.8053530950109435e-18,-0.022907446432425576,-0.18653206380689397,30.9375,9.624999999999996,-78.5
1772053517.5180883,-7.016709298534876e-15,-0.0,0.0,0.0,0.0,0.0,-0.001090830782496458,-0.015271630954950384,-0.1538071403320003,30.875,8.874999999999996,-77.6875
1772053517.5655968,-7.016709298534876e-15,-0.0,0.0,0.0,0.0,0.0,0.0010908307824964547,-0.01090830782496456,-0.1734420944169365,28.6875,11.062499999999996,-77.3125
1772053517.615556,-7.016709298534876e-15,-0.0,0.0,0.0,0.0,0.0,-0.004363323129985826,-0.01090830782496456,-0.18871372537188688,28.6875,11.062499999999996,-77.3125
1772053517.6758738,-7.016709298534876e-15,-0.0,0.0,0.0,0.0,0.0,-0.010908307824964561,-0.011999138607461013,-0.19962203319685143,29.4375,9.249999999999996,-76.125
1772053517.7325563,-7.016709298534876e-15,-0.0,0.0,0.0,0.0,0.0,-0.007635815477475194,-0.017453292519943295,-0.20180369476184434,28.6875,10.374999999999996,-76.5625
1772053517.8193383,-7.016709298534876e-15,-0.0,0.0,0.0,0.0,0.0,-0.01090830782496456,-0.004363323129985822,-0.2301652951067522,30.1875,9.624999999999996,-75.6875
1772053517.8412793,-7.016709298534876e-15,-0.0,0.0,0.0,0.0,0.0,0.007635815477475191,-0.006544984694978737,-0.21271200258680892,30.1875,9.624999999999996,-75.6875
1772053517.8853698,-7.016709298534876e-15,-0.0,0.0,0.0,0.0,0.0,0.002181661564992911,-0.007635815477475192,-0.18871372537188688,30.1875,9.624999999999996,-75.6875
1772053517.9122407,-7.016709298534876e-15,-0.0,0.0,0.0,0.0,0.0,-0.00872664625997165,-0.014180800172453926,-0.23671027980173096,27.5625,8.499999999999996,-74.125
1772053517.9940279,-7.016709298534876e-15,-0.0,0.0,0.0,0.0,0.0,-0.0032724923474893694,-0.011999138607461015,-0.210530341021816,27.5625,8.499999999999996,-74.125
1772053518.0154378,-7.016709298534876e-15,-0.0,0.0,0.0,0.0,0.0,-2.003823639293531e-18,-0.016362461737446838,-0.22580197197676638,27.25,7.7499999999999964,-73.75
1772053518.079697,-7.016709298534876e-15,-0.0,0.0,0.0,0.0,0.0,-0.0010908307824964581,-0.017453292519943295,-0.23234695667174513,27.5625,5.5624999999999964,-72.5625
1772053518.1176584,-7.016709298534876e-15,-0.0,0.0,0.0,0.0,0.0,0.0010908307824964547,-0.01090830782496456,-0.22580197197676638,27.5625,5.5624999999999964,-72.5625
1772053518.2643166,-7.016709298534876e-15,-0.0,0.0,0.0,0.0,0.0,-0.007635815477475194,-0.011999138607461013,-0.25634523388666713,27.25,5.9374999999999964,-72.125
1772053518.3273416,-7.016709298534876e-15,-0.0,0.0,0.0,0.0,0.0,-0.01636246173744684,-0.025089107997418484,-0.27598018797160334,29.0625,4.4374999999999964,-70.9375
1772053518.3492336,-7.016709298534876e-15,-0.0,0.0,0.0,0.0,0.0,-0.01636246173744684,-0.025089107997418484,-0.27598018797160334,29.0625,4.4374999999999964,-70.9375
1772053518.4155993,-7.016709298534876e-15,-0.0,0.0,0.0,0.0,0.0,-0.013089969389957476,-0.02181661564992912,-0.24980024919168842,28.3125,3.6874999999999964,-70.5625
1772053518.4342055,-7.016709298534876e-15,-0.0,0.0,0.0,0.0,0.0,-0.013089969389957476,-0.02181661564992912,-0.24980024919168842,28.3125,3.6874999999999964,-70.5625
1772053518.5140588,-7.016709298534876e-15,-0.0,0.0,0.0,0.0,0.0,0.0010908307824964527,-0.0272707695624114,-0.24216443371421323,27.9375,2.9999999999999964,-70.1875
1772053518.6045315,-7.016709298534876e-15,-0.0,0.0,0.0,0.0,0.0,-0.01418080017245393,-0.011999138607461013,-0.17780541754692233,26.125,0.7499999999999968,-70.1875
1772053518.6251318,-7.016709298534876e-15,-0.0,0.0,0.0,0.0,0.0,0.019634954084936204,-0.021816615649929122,-0.13199052468207118,28.6875,0.3749999999999965,-70.9375
1772053518.7045965,-7.016709298534876e-15,-0.0,0.0,0.0,0.0,0.0,0.01854412330243975,-0.023998277214922033,-0.2279836335417593,28.6875,0.3749999999999965,-70.9375
1772053518.7310083,-7.016709298534876e-15,-0.0,0.0,0.0,0.0,0.0,-0.018544123302439753,-0.003272492347489366,-0.24325526449670967,27.25,-0.31250000000000333,-69.75
1772053518.8270361,-7.016709298534876e-15,-0.0,0.0,0.0,0.0,0.0,-0.007635815477475191,0.004363323129985825,-0.27052603405912107,27.9375,-2.9375000000000036,-70.9375
1772053518.8916643,-7.016709298534876e-15,-0.0,0.0,0.0,0.0,0.0,-0.007635815477475191,0.004363323129985825,-0.27052603405912107,27.9375,-2.9375000000000036,-70.9375
1772053518.9356136,-7.016709298534876e-15,-0.0,0.0,0.0,0.0,0.0,-0.004363323129985826,-0.016362461737446838,-0.17671458676442586,29.4375,-2.5625000000000036,-70.1875
1772053519.003339,-7.016709298534876e-15,-0.0,0.0,0.0,0.0,0.0,-0.004363323129985826,-0.016362461737446838,-0.17671458676442586,29.4375,-2.5625000000000036,-70.1875
1772053519.0197158,-7.016709298534876e-15,-0.0,0.0,0.0,0.0,0.0,-2.538176609771806e-18,-0.020725784867432664,-0.20180369476184434,29.4375,-3.6250000000000036,-70.9375
1772053519.0787811,-7.016709298534876e-15,-0.0,0.0,0.0,0.0,0.0,-0.015271630954950386,-0.019634954084936204,-0.210530341021816,30.5625,-4.7500000000000036,-72.125
1772053519.1272943,-7.016709298534876e-15,-0.0,0.0,0.0,0.0,0.0,0.003272492347489366,-0.018544123302439753,-0.2454369260617026,30.5625,-4.7500000000000036,-72.125
1772053519.2066746,-7.016709298534876e-15,-0.0,0.0,0.0,0.0,0.0,-0.0174532925199433,-0.014180800172453926,-0.2530727415391778,30.5625,-6.6250000000000036,-72.125
1772053519.2672515,-7.016709298534876e-15,-0.0,0.0,0.0,0.0,0.0,-1.469470668815256e-18,-0.011999138607461015,-0.24107360293171676,30.5625,-6.6250000000000036,-72.125
1772053519.2979686,-7.016709298534876e-15,-0.0,0.0,0.0,0.0,0.0,0.005454153912482276,-0.025089107997418487,-0.21925698728178766,30.5625,-6.2500000000000036,-72.125
1772053519.4039729,-7.016709298534876e-15,-0.0,0.0,0.0,0.0,0.0,0.0010908307824964534,-0.020725784867432664,-0.19962203319685143,30.875,-6.6250000000000036,-73.3125
1772053519.4634686,-7.016709298534876e-15,-0.0,0.0,0.0,0.0,0.0,-0.0043633231299858265,-0.020725784867432664,-0.2399827721492203,30.875,-8.812500000000004,-74.5
1772053519.5269604,-7.016709298534876e-15,-0.0,0.0,0.0,0.0,0.0,-0.006544984694978738,-0.016362461737446838,-0.22689280275926285,32.375,-9.562500000000004,-74.125
1772053519.5958166,-7.016709298534876e-15,-0.0,0.0,0.0,0.0,0.0,-0.006544984694978738,-0.016362461737446838,-0.22689280275926285,32.375,-9.562500000000004,-74.125
1772053519.6261704,-7.016709298534876e-15,-0.0,0.0,0.0,0.0,0.0,0.0065449846949787345,-0.013089969389957472,-0.18871372537188688,32.375,-9.562500000000004,-74.125
1772053519.6888013,-7.016709298534876e-15,-0.0,0.0,0.0,0.0,0.0,0.0021816615649929093,-0.020725784867432664,-0.23561944901923448,31.625,-8.437500000000004,-75.3125
1772053519.7106488,-7.016709298534876e-15,-0.0,0.0,0.0,0.0,0.0,-0.002181661564992915,-0.02399827721492203,-0.2279836335417593,33.5,-8.812500000000004,-76.9375
1772053519.756156,-7.016709298534876e-15,-0.0,0.0,0.0,0.0,0.0,-8.015294557174126e-19,-0.006544984694978736,-0.2378011105842274,33.5,-8.812500000000004,-76.9375
1772053519.7912607,-7.016709298534876e-15,-0.0,0.0,0.0,0.0,0.0,0.002181661564992911,-0.008726646259971648,-0.22689280275926285,32.75,-8.062500000000004,-77.3125
1772053519.8089683,-7.016709298534876e-15,-0.0,0.0,0.0,0.0,0.0,-0.002181661564992913,-0.007635815477475192,-0.21162117180431245,32.75,-8.062500000000004,-77.3125
1772053519.8297935,-7.016709298534876e-15,-0.0,0.0,0.0,0.0,0.0,-0.001090830782496457,-0.008726646259971648,-0.19525871006686563,32.75,-8.062500000000004,-77.3125
1772053519.8753147,-7.016709298534876e-15,-0.0,0.0,0.0,0.0,0.0,0.001090830782496455,-0.007635815477475192,-0.1712604328519436,33.125,-9.187500000000004,-77.3125
1772053519.9116807,-7.016709298534876e-15,-0.0,0.0,0.0,0.0,0.0,-0.0032724923474893694,-0.011999138607461015,-0.25743606466916363,33.125,-9.187500000000004,-77.3125
1772053519.9660687,-7.016709298534876e-15,-0.0,0.0,0.0,0.0,0.0,-0.010908307824964561,-0.020725784867432664,-0.2585268954516601,34.25,-10.625000000000004,-76.9375
1772053520.0302548,-7.016709298534876e-15,-0.0,0.0,0.0,0.0,0.0,-0.003272492347489369,-0.007635815477475192,-0.26398104936414235,34.5625,-11.000000000000004,-78.875
1772053520.115234,-7.016709298534876e-15,-0.0,0.0,0.0,0.0,0.0,-0.00872664625997165,-0.011999138607461013,-0.21598449493429828,34.25,-11.750000000000004,-80.0625
1772053520.2325888,-7.016709298534876e-15,-0.0,0.0,0.0,0.0,0.0,-0.00872664625997165,-0.019634954084936207,-0.22362031041177347,34.9375,-9.937500000000004,-80.0625
1772053520.2903287,-7.016709298534876e-15,-0.0,0.0,0.0,0.0,0.0,-0.00545415391248228,6.679412130978437e-19,-0.19525871006686563,34.9375,-10.625000000000004,-80.5
1772053520.3363285,-7.016709298534876e-15,-0.0,0.0,0.0,0.0,0.0,-0.010908307824964561,-0.020725784867432664,-0.21162117180431245,35.6875,-13.250000000000004,-80.875
1772053520.397409,-7.016709298534876e-15,-0.0,0.0,0.0,0.0,0.0,-0.02508910799741849,-0.023998277214922027,-0.24107360293171676,35.6875,-13.250000000000004,-80.875
1772053520.4388368,-7.016709298534876e-15,-0.0,0.0,0.0,0.0,0.0,-0.02508910799741849,-0.023998277214922027,-0.24107360293171676,35.6875,-13.250000000000004,-80.875
1772053520.4783778,-7.016709298534876e-15,-0.0,0.0,0.0,0.0,0.0,-0.0021816615649929132,-0.01090830782496456,-0.21271200258680892,35.3125,-11.750000000000004,-81.6875
1772053520.5571039,-7.016709298534876e-15,-0.0,0.0,0.0,0.0,0.0,-0.0032724923474893703,-0.016362461737446838,-0.2596177262341565,35.6875,-12.875000000000004,-81.3125
1772053520.624116,-7.016709298534876e-15,-0.0,0.0,0.0,0.0,0.0,-0.013089969389957474,-0.020725784867432664,-0.17016960206944712,35.6875,-12.875000000000004,-82.875
1772053520.6894157,-7.016709298534876e-15,-0.0,0.0,0.0,0.0,0.0,0.008726646259971644,-0.03381575425739013,-0.22362031041177347,35.3125,-13.250000000000004,-84.0
1772053520.7724106,-7.016709298534876e-15,-0.0,0.0,0.0,0.0,0.0,0.0021816615649929093,-0.019634954084936207,-0.23561944901923448,35.3125,-13.250000000000004,-84.0
1772053520.8534727,-7.016709298534876e-15,-0.0,0.0,0.0,0.0,0.0,0.0010908307824964544,-0.011999138607461015,-0.20507618710933373,36.4375,-12.125000000000005,-83.25
1772053520.9407785,-7.016709298534876e-15,-0.0,0.0,0.0,0.0,0.0,-0.004363323129985827,-0.02945243112740431,-0.22689280275926285,37.5625,-12.875000000000005,-85.25
1772053521.0368893,-7.016709298534876e-15,-0.0,0.0,0.0,0.0,0.0,-0.0032724923474893707,-0.02181661564992912,-0.21707532571679475,37.5625,-12.875000000000005,-85.25
1772053521.0843027,-7.016709298534876e-15,-0.0,0.0,0.0,0.0,0.0,0.004363323129985822,-0.014180800172453928,-0.22907446432425577,37.5625,-14.312500000000005,-86.0
1772053521.1779068,-7.016709298534876e-15,-0.0,0.0,0.0,0.0,0.0,-0.011999138607461017,-0.010908307824964558,-0.22689280275926285,38.625,-13.625000000000005,-86.4375
1772053521.2269652,-7.016709298534876e-15,-0.0,0.0,0.0,0.0,0.0,-0.0010908307824964577,-0.014180800172453928,-0.24652775684419906,38.625,-13.625000000000005,-86.4375
1772053521.2724798,-7.016709298534876e-15,-0.0,0.0,0.0,0.0,0.0,-0.007635815477475195,-0.020725784867432664,-0.21489366415180183,38.25,-14.687500000000005,-87.25
1772053521.2997549,-7.016709298534876e-15,-0.0,0.0,0.0,0.0,0.0,-0.013089969389957474,-0.016362461737446838,-0.25743606466916363,38.25,-14.687500000000005,-87.25
1772053521.325026,-7.016709298534876e-15,-0.0,0.0,0.0,0.0,0.0,0.004363323129985821,-0.02399827721492203,-0.2399827721492203,38.625,-15.062500000000005,-86.4375
1772053521.38611,-7.016709298534876e-15,-0.0,0.0,0.0,0.0,0.0,-0.014180800172453932,-0.025089107997418484,-0.2007128639793479,38.625,-15.062500000000005,-86.4375
1772053521.4089139,-7.016709298534876e-15,-0.0,0.0,0.0,0.0,0.0,-0.010908307824964563,-0.02399827721492203,-0.23671027980173096,39.0,-15.062500000000005,-87.625
1772053521.4399936,-7.016709298534876e-15,-0.0,0.0,0.0,0.0,0.0,-0.0032724923474893707,-0.02181661564992912,-0.20616701789183017,39.0,-15.062500000000005,-87.625
1772053521.4871464,-7.016709298534876e-15,-0.0,0.0,0.0,0.0,0.0,-0.01418080017245393,-0.01854412330243975,-0.23234695667174513,40.5,-14.312500000000005,-88.0
1772053521.5207474,-7.016709298534876e-15,-0.0,0.0,0.0,0.0,0.0,0.015271630954950382,-0.013089969389957474,-0.22252947962927702,40.5,-14.312500000000005,-88.0
1772053521.569884,-7.016709298534876e-15,-0.0,0.0,0.0,0.0,0.0,-0.009817477042468105,-0.008726646259971646,-0.22689280275926285,38.625,-16.187500000000004,-88.0
1772053521.605641,-7.016709298534876e-15,-0.0,0.0,0.0,0.0,0.0,-0.020725784867432668,-0.02072578486743266,-0.22471114119426994,38.625,-16.187500000000004,-88.0
1772053521.6638796,-7.016709298534876e-15,-0.0,0.0,0.0,0.0,0.0,-0.0032724923474893707,-0.020725784867432664,-0.22689280275926285,40.5,-15.437500000000005,-90.0
1772053521.7508612,-7.016709298534876e-15,-0.0,0.0,0.0,0.0,0.0,0.00218166156499291,-0.013089969389957472,-0.21707532571679475,40.875,-16.562500000000004,-89.5625
1772053521.8732145,-7.016709298534876e-15,-0.0,0.0,0.0,0.0,0.0,-0.002181661564992914,-0.017453292519943295,-0.24216443371421323,40.875,-16.562500000000004,-90.375
1772053521.9256458,-7.016709298534876e-15,-0.0,0.0,0.0,0.0,0.0,-0.007635815477475194,-0.014180800172453926,-0.23889194136672387,42.3125,-16.562500000000004,-92.0
1772053522.0066917,-7.016709298534876e-15,-0.0,0.0,0.0,0.0,0.0,-0.006544984694978739,-0.02181661564992912,-0.2279836335417593,42.3125,-16.562500000000004,-92.0
1772053522.0446575,-7.016709298534876e-15,-0.0,0.0,0.0,0.0,0.0,-0.013089969389957476,-0.02181661564992912,-0.22580197197676638,42.6875,-18.000000000000004,-92.0
1772053522.0701506,-7.016709298534876e-15,-0.0,0.0,0.0,0.0,0.0,-0.0010908307824964581,-0.018544123302439753,-0.2301652951067522,42.6875,-18.000000000000004,-92.0
1772053522.1159785,-7.016709298534876e-15,-0.0,0.0,0.0,0.0,0.0,-0.0010908307824964581,-0.018544123302439753,-0.2301652951067522,42.6875,-18.000000000000004,-92.0
1772053522.1374624,-7.016709298534876e-15,-0.0,0.0,0.0,0.0,0.0,-0.004363323129985825,-0.009817477042468103,-0.20943951023931956,42.6875,-18.000000000000004,-92.75
1772053522.1837106,-7.016709298534876e-15,-0.0,0.0,0.0,0.0,0.0,-0.006544984694978738,-0.016362461737446838,-0.24216443371421323,44.1875,-18.000000000000007,-93.9375
1772053522.2339501,-7.016709298534876e-15,-0.0,0.0,0.0,0.0,0.0,-0.00872664625997165,-0.009817477042468102,-0.18653206380689397,44.1875,-18.000000000000007,-93.9375
1772053522.2683446,-7.016709298534876e-15,-0.0,0.0,0.0,0.0,0.0,-0.018544123302439756,-0.015271630954950382,-0.22471114119426994,44.875,-18.750000000000007,-94.75
1772053522.3203208,-7.016709298534876e-15,-0.0,0.0,0.0,0.0,0.0,0.0010908307824964558,-0.0010908307824964562,-0.20943951023931956,44.875,-18.750000000000007,-94.75
1772053522.343158,-7.016709298534876e-15,-0.0,0.0,0.0,0.0,0.0,-0.011999138607461017,-0.019634954084936207,-0.20725784867432664,44.875,-17.625000000000007,-95.9375
1772053522.4132903,-7.016709298534876e-15,-0.0,0.0,0.0,0.0,0.0,0.00218166156499291,-0.014180800172453928,-0.20943951023931956,45.625,-18.750000000000007,-96.3125
1772053522.4412212,-7.016709298534876e-15,-0.0,0.0,0.0,0.0,0.0,-0.00654498469497874,-0.025089107997418487,-0.210530341021816,45.625,-18.750000000000007,-96.3125
1772053522.495085,-7.016709298534876e-15,-0.0,0.0,0.0,0.0,0.0,0.002181661564992911,-0.006544984694978736,-0.21707532571679475,46.375,-18.000000000000007,-97.5
1772053522.5450988,-7.016709298534876e-15,-0.0,0.0,0.0,0.0,0.0,-0.00872664625997165,-0.01308996938995747,-0.2378011105842274,46.375,-18.000000000000007,-97.5
1772053522.5889075,-7.016709298534876e-15,-0.0,0.0,0.0,0.0,0.0,-0.00545415391248228,-0.0032724923474893673,-0.22907446432425577,48.5625,-17.625000000000007,-99.9375
1772053522.6146846,-7.016709298534876e-15,-0.0,0.0,0.0,0.0,0.0,0.0021816615649929093,-0.022907446432425576,-0.1908953869368798,48.5625,-17.625000000000007,-99.9375
1772053522.6618295,-7.016709298534876e-15,-0.0,0.0,0.0,0.0,0.0,-0.00327249234748937,-0.013089969389957472,-0.17453292519943295,48.1875,-18.375000000000007,-100.3125
1772053522.7104099,-7.016709298534876e-15,-0.0,0.0,0.0,0.0,0.0,-0.022907446432425576,-0.0032724923474893655,-0.2203478180642841,48.1875,-18.375000000000007,-100.3125
1772053522.733618,-7.016709298534876e-15,-0.0,0.0,0.0,0.0,0.0,0.016362461737446835,-0.027270769562411402,-0.26070855701665296,49.3125,-18.375000000000007,-100.6875
1772053522.7740066,-7.016709298534876e-15,-0.0,0.0,0.0,0.0,0.0,0.004363323129985822,-0.015271630954950384,-0.22252947962927702,49.3125,-18.375000000000007,-100.6875
1772053522.8083117,-7.016709298534876e-15,-0.0,0.0,0.0,0.0,0.0,-0.015271630954950387,-0.021816615649929115,-0.24434609527920614,49.3125,-18.375000000000007,-100.6875
1772053522.852405,-7.016709298534876e-15,-0.0,0.0,0.0,0.0,0.0,0.0021816615649929124,0.0021816615649929115,-0.24107360293171676,50.0625,-16.562500000000007,-102.3125
1772053522.8720138,-7.016709298534876e-15,-0.0,0.0,0.0,0.0,0.0,0.0021816615649929124,0.0021816615649929115,-0.24107360293171676,50.0625,-16.562500000000007,-102.3125
1772053522.8922732,-7.016709298534876e-15,-0.0,0.0,0.0,0.0,0.0,-0.002181661564992912,-0.0010908307824964558,-0.25634523388666713,50.0625,-16.562500000000007,-102.3125
1772053522.9475684,-7.016709298534876e-15,-0.0,0.0,0.0,0.0,0.0,-0.004363323129985826,-0.017453292519943295,-0.2596177262341565,54.5,-12.875000000000007,-105.875
1772053522.9814365,-7.016709298534876e-15,-0.0,0.0,0.0,0.0,0.0,0.0032724923474893646,-0.0272707695624114,-0.21271200258680892,54.5,-12.875000000000007,-105.875
1772053523.005446,-7.016709298534876e-15,-0.0,0.0,0.0,0.0,0.0,0.0010908307824964538,-0.017453292519943295,-0.20943951023931956,53.375,-16.187500000000007,-105.0625
1772053523.0263329,-7.016709298534876e-15,-0.0,0.0,0.0,0.0,0.0,-2.8053530950109435e-18,-0.022907446432425576,-0.22580197197676638,53.375,-16.187500000000007,-105.0625
1772053523.0957801,-7.016709298534876e-15,-0.0,0.0,0.0,0.0,0.0,0.005454153912482278,-0.016362461737446838,-0.21162117180431245,54.125,-15.062500000000007,-105.4375
1772053523.1300507,-7.016709298534876e-15,-0.0,0.0,0.0,0.0,0.0,0.005454153912482278,-0.016362461737446838,-0.21162117180431245,54.125,-15.062500000000007,-105.4375
1772053523.2204237,-7.016709298534876e-15,-0.0,0.0,0.0,0.0,0.0,-0.019634954084936207,-0.01308996938995747,-0.24652775684419906,54.875,-14.312500000000007,-108.25
1772053523.254585,-7.016709298534876e-15,-0.0,0.0,0.0,0.0,0.0,0.00218166156499291,-0.014180800172453928,-0.23671027980173096,54.5,-13.937500000000007,-108.25
1772053523.3073792,-7.016709298534876e-15,-0.0,0.0,0.0,0.0,0.0,-0.007635815477475195,-0.02181661564992912,-0.23671027980173096,54.5,-13.937500000000007,-108.25
1772053523.3565316,-7.016709298534876e-15,-0.0,0.0,0.0,0.0,0.0,-0.009817477042468105,-0.018544123302439753,-0.2454369260617026,55.5625,-11.375000000000007,-110.625
1772053523.3994067,-7.016709298534876e-15,-0.0,0.0,0.0,0.0,0.0,-0.002181661564992914,-0.016362461737446838,-0.2399827721492203,55.5625,-11.375000000000007,-110.625
1772053523.4523187,-7.016709298534876e-15,-0.0,0.0,0.0,0.0,0.0,0.007635815477475189,-0.018544123302439753,-0.2476185876266955,57.0625,-11.000000000000007,-111.0
1772053523.4853623,-7.016709298534876e-15,-0.0,0.0,0.0,0.0,0.0,0.007635815477475189,-0.018544123302439753,-0.2476185876266955,57.0625,-11.000000000000007,-111.0
1772053523.5168617,-7.016709298534876e-15,-0.0,0.0,0.0,0.0,0.0,-0.0021816615649929137,-0.014180800172453928,-0.2279836335417593,59.25,-8.437500000000007,-111.4375
1772053523.576474,-7.016709298534876e-15,-0.0,0.0,0.0,0.0,0.0,-0.022907446432425576,-0.013089969389957469,-0.25634523388666713,58.5,-8.812500000000007,-112.1875
1772053523.6068966,-7.016709298534876e-15,-0.0,0.0,0.0,0.0,0.0,-0.004363323129985825,-0.009817477042468103,-0.24980024919168842,58.5,-8.812500000000007,-112.1875
1772053523.6252196,-7.016709298534876e-15,-0.0,0.0,0.0,0.0,0.0,-0.006544984694978737,-0.008726646259971648,-0.2181661564992912,58.5,-8.812500000000007,-112.1875
1772053523.6435335,-7.016709298534876e-15,-0.0,0.0,0.0,0.0,0.0,-0.006544984694978737,-0.008726646259971648,-0.2181661564992912,58.5,-8.812500000000007,-112.1875
1772053523.7009234,-7.016709298534876e-15,-0.0,0.0,0.0,0.0,0.0,-0.028361600344907856,-0.011999138607461012,-0.2203478180642841,58.5,-5.500000000000007,-113.375
1772053523.7469943,-7.016709298534876e-15,-0.0,0.0,0.0,0.0,0.0,0.006544984694978734,-0.019634954084936207,-0.17016960206944712,59.25,-4.375000000000007,-113.8125
1772053523.776903,-7.016709298534876e-15,-0.0,0.0,0.0,0.0,0.0,-1.469470668815256e-18,-0.011999138607461015,-0.1407171709420428,59.25,-4.375000000000007,-113.8125
1772053523.8015165,-7.016709298534876e-15,-0.0,0.0,0.0,0.0,0.0,-1.469470668815256e-18,-0.011999138607461015,-0.1407171709420428,59.25,-4.375000000000007,-113.8125
1772053523.8497648,-7.016709298534876e-15,-0.0,0.0,0.0,0.0,0.0,-0.007635815477475193,-0.005454153912482279,-0.14726215563702155,60.75,-3.3125000000000075,-115.75
1772053523.9108536,-7.016709298534876e-15,-0.0,0.0,0.0,0.0,0.0,0.003272492347489368,-0.0010908307824964564,-0.2279836335417593,58.875,-0.6875000000000072,-114.5625
1772053523.938887,-7.016709298534876e-15,-0.0,0.0,0.0,0.0,0.0,-1.8702353966739624e-18,-0.015271630954950384,-0.20398535632683726,58.875,-0.6875000000000072,-114.5625
1772053523.9692745,-7.016709298534876e-15,-0.0,0.0,0.0,0.0,0.0,-1.8702353966739624e-18,-0.015271630954950384,-0.20398535632683726,58.875,-0.6875000000000072,-114.5625
1772053523.9994283,-7.016709298534876e-15,-0.0,0.0,0.0,0.0,0.0,-0.002181661564992914,-0.017453292519943295,-0.16144295580947549,60.375,0.3749999999999926,-115.375
1772053524.013555,-7.016709298534876e-15,-0.0,0.0,0.0,0.0,0.0,-0.016362461737446838,-0.011999138607461013,-0.20725784867432664,60.375,0.3749999999999926,-115.375
1772053524.0288198,-7.016709298534876e-15,-0.0,0.0,0.0,0.0,0.0,-0.016362461737446838,-0.011999138607461013,-0.20725784867432664,60.375,0.3749999999999926,-115.375
1772053524.0518546,-7.016709298534876e-15,-0.0,0.0,0.0,0.0,0.0,-0.0032724923474893716,-0.0272707695624114,-0.20725784867432664,60.375,0.3749999999999926,-115.375
1772053524.097157,-7.016709298534876e-15,-0.0,0.0,0.0,0.0,0.0,-0.002181661564992913,-0.00545415391248228,-0.20398535632683726,59.625,4.812499999999993,-114.625
1772053524.1279323,-7.016709298534876e-15,-0.0,0.0,0.0,0.0,0.0,0.009817477042468102,-0.015271630954950386,-0.18216874067690814,59.625,4.812499999999993,-114.625
1772053524.174268,-7.016709298534876e-15,-0.0,0.0,0.0,0.0,0.0,-0.0010908307824964568,-0.006544984694978736,-0.16907877128695067,59.625,6.999999999999993,-114.1875
1772053524.1964016,-7.016709298534876e-15,-0.0,0.0,0.0,0.0,0.0,-0.005454153912482281,-0.016362461737446838,-0.18653206380689397,59.625,6.999999999999993,-114.1875
1772053524.2219455,-7.016709298534876e-15,-0.0,0.0,0.0,0.0,0.0,-0.005454153912482281,-0.016362461737446838,-0.18653206380689397,59.625,6.999999999999993,-114.1875
1772053524.2384212,-7.016709298534876e-15,-0.0,0.0,0.0,0.0,0.0,0.009817477042468102,-0.011999138607461017,-0.18653206380689397,59.25,6.999999999999993,-114.5625
1772053524.255743,-7.016709298534876e-15,-0.0,0.0,0.0,0.0,0.0,-0.004363323129985826,-0.014180800172453928,-0.20398535632683726,59.25,6.999999999999993,-114.5625
1772053524.2859352,-7.016709298534876e-15,-0.0,0.0,0.0,0.0,0.0,-0.0021816615649929145,-0.020725784867432664,-0.19634954084936207,59.25,6.999999999999993,-114.5625
1772053524.315092,-7.016709298534876e-15,-0.0,0.0,0.0,0.0,0.0,-0.007635815477475194,-0.010908307824964558,-0.2083486794568231,58.875,8.499999999999993,-114.625
1772053524.3460612,-7.016709298534876e-15,-0.0,0.0,0.0,0.0,0.0,0.015271630954950382,-0.0174532925199433,-0.1930770485018727,58.875,8.499999999999993,-114.625
1772053524.3675342,-7.016709298534876e-15,-0.0,0.0,0.0,0.0,0.0,-0.013089969389957474,-0.008726646259971646,-0.23561944901923448,58.875,8.499999999999993,-114.625
1772053524.391127,-7.016709298534876e-15,-0.0,0.0,0.0,0.0,0.0,-0.013089969389957474,-0.008726646259971646,-0.23561944901923448,58.875,8.499999999999993,-114.625
1772053524.4249508,-7.016709298534876e-15,-0.0,0.0,0.0,0.0,0.0,-0.007635815477475193,-0.006544984694978735,-0.22580197197676638,58.875,10.312499999999993,-112.1875
1772053524.4564896,-7.016709298534876e-15,-0.0,0.0,0.0,0.0,0.0,-0.007635815477475194,-0.015271630954950382,-0.24325526449670967,58.875,10.312499999999993,-112.1875
1772053524.4940784,-7.016709298534876e-15,-0.0,0.0,0.0,0.0,0.0,-0.004363323129985826,-0.017453292519943295,-0.22689280275926285,57.4375,11.812499999999993,-112.1875
1772053524.5134275,-7.016709298534876e-15,-0.0,0.0,0.0,0.0,0.0,-0.00327249234748937,-0.014180800172453928,-0.21380283336930536,57.4375,11.812499999999993,-112.1875
1772053524.5285726,-7.016709298534876e-15,-0.0,0.0,0.0,0.0,0.0,-0.005454153912482281,-0.015271630954950384,-0.20943951023931956,57.4375,11.812499999999993,-112.1875
1772053524.5579488,-7.016709298534876e-15,-0.0,0.0,0.0,0.0,0.0,-0.005454153912482281,-0.015271630954950384,-0.20943951023931956,57.4375,11.812499999999993,-112.1875
1772053524.5970907,-7.016709298534876e-15,-0.0,0.0,0.0,0.0,0.0,0.003272492347489367,-0.01090830782496456,-0.24216443371421323,57.8125,14.374999999999993,-111.4375
1772053524.6284935,-7.016709298534876e-15,-0.0,0.0,0.0,0.0,0.0,-0.003272492347489371,-0.02399827721492203,-0.2007128639793479,57.8125,14.374999999999993,-111.4375
1772053524.6560054,-7.016709298534876e-15,-0.0,0.0,0.0,0.0,0.0,-0.016362461737446838,-0.0065449846949787345,-0.20725784867432664,57.0625,13.999999999999993,-111.8125
1772053524.6878116,-7.016709298534876e-15,-0.0,0.0,0.0,0.0,0.0,0.014180800172453925,-0.021816615649929122,-0.1712604328519436,57.0625,13.999999999999993,-111.8125
1772053524.7038028,-7.016709298534876e-15,-0.0,0.0,0.0,0.0,0.0,-0.03381575425739013,-0.010908307824964556,-0.23343778745424157,57.0625,13.999999999999993,-111.8125
1772053524.7193463,-7.016709298534876e-15,-0.0,0.0,0.0,0.0,0.0,-0.03381575425739013,-0.010908307824964556,-0.23343778745424157,57.0625,13.999999999999993,-111.8125
1772053524.751082,-7.016709298534876e-15,-0.0,0.0,0.0,0.0,0.0,-0.011999138607461017,-0.010908307824964558,-0.28907015736156083,54.875,14.749999999999993,-109.875
1772053524.7836165,-7.016709298534876e-15,-0.0,0.0,0.0,0.0,0.0,-0.011999138607461017,-0.010908307824964558,-0.28907015736156083,54.875,14.749999999999993,-109.875
1772053524.8101985,-7.016709298534876e-15,-0.0,0.0,0.0,0.0,0.0,-0.014180800172453932,-0.027270769562411395,-0.27052603405912107,55.9375,15.874999999999993,-111.0
1772053524.847768,-7.016709298534876e-15,-0.0,0.0,0.0,0.0,0.0,-0.009817477042468105,-0.017453292519943295,-0.24980024919168842,55.9375,15.874999999999993,-111.0
1772053524.882815,-7.016709298534876e-15,-0.0,0.0,0.0,0.0,0.0,-0.013089969389957472,-0.004363323129985822,-0.22689280275926285,55.5625,16.624999999999993,-109.8125
1772053524.9054081,-7.016709298534876e-15,-0.0,0.0,0.0,0.0,0.0,0.004363323129985823,-0.0054541539124822805,-0.26616271092913524,55.5625,16.624999999999993,-109.8125
1772053524.922829,-7.016709298534876e-15,-0.0,0.0,0.0,0.0,0.0,0.007635815477475191,-0.004363323129985825,-0.25634523388666713,55.5625,16.624999999999993,-109.8125
1772053524.9393218,-7.016709298534876e-15,-0.0,0.0,0.0,0.0,0.0,0.010908307824964558,-0.007635815477475194,-0.23125612588924865,54.875,17.687499999999993,-110.25
1772053524.990582,-7.016709298534876e-15,-0.0,0.0,0.0,0.0,0.0,-0.013089969389957474,-0.008726646259971646,-0.2279836335417593,54.875,17.687499999999993,-110.25
1772053525.0228083,-7.016709298534876e-15,-0.0,0.0,0.0,0.0,0.0,-0.01636246173744684,-0.014180800172453926,-0.25743606466916363,54.875,17.687499999999993,-110.25
1772053525.04908,-7.016709298534876e-15,-0.0,0.0,0.0,0.0,0.0,0.0021816615649929093,-0.022907446432425576,-0.24107360293171676,54.125,16.249999999999993,-109.0625
1772053525.0715864,-7.016709298534876e-15,-0.0,0.0,0.0,0.0,0.0,-0.01963495408493621,-0.015271630954950382,-0.22143864884678055,54.125,16.249999999999993,-109.0625
1772053525.0965059,-7.016709298534876e-15,-0.0,0.0,0.0,0.0,0.0,-0.014180800172453932,-0.023998277214922027,-0.22471114119426994,53.375,17.312499999999993,-107.4375
1772053525.152846,-7.016709298534876e-15,-0.0,0.0,0.0,0.0,0.0,-0.007635815477475194,-0.015271630954950382,-0.2279836335417593,53.0,18.437499999999993,-108.25
1772053525.1776807,-7.016709298534876e-15,-0.0,0.0,0.0,0.0,0.0,0.0021816615649929098,-0.016362461737446838,-0.21925698728178766,53.0,18.437499999999993,-108.25
1772053525.1972086,-7.016709298534876e-15,-0.0,0.0,0.0,0.0,0.0,0.0021816615649929098,-0.016362461737446838,-0.21925698728178766,53.0,18.437499999999993,-108.25
1772053525.2282574,-7.016709298534876e-15,-0.0,0.0,0.0,0.0,0.0,0.023998277214922027,-0.023998277214922033,-0.23889194136672387,51.5,18.437499999999993,-107.0625
1772053525.2776678,-7.016709298534876e-15,-0.0,0.0,0.0,0.0,0.0,-0.004363323129985826,-0.016362461737446838,-0.25089107997418486,51.5,18.437499999999993,-107.0625
1772053525.3323126,-7.016709298534876e-15,-0.0,0.0,0.0,0.0,0.0,-0.006544984694978737,-0.006544984694978735,-0.2279836335417593,54.125,19.187499999999993,-108.25
1772053525.3747168,-7.016709298534876e-15,-0.0,0.0,0.0,0.0,0.0,-3.473294308108788e-18,-0.028361600344907856,-0.2596177262341565,54.125,19.187499999999993,-108.25
1772053525.4135032,-7.016709298534876e-15,-0.0,0.0,0.0,0.0,0.0,-0.005454153912482283,-0.025089107997418487,-0.2399827721492203,51.875,19.187499999999993,-106.6875
1772053525.4479117,-7.016709298534876e-15,-0.0,0.0,0.0,0.0,0.0,-0.003272492347489371,-0.02399827721492203,-0.24652775684419906,50.8125,20.624999999999993,-106.625
1772053525.4872458,-7.016709298534876e-15,-0.0,0.0,0.0,0.0,0.0,0.008726646259971644,-0.022907446432425576,-0.19525871006686563,50.8125,20.624999999999993,-106.625
1772053525.5313115,-7.016709298534876e-15,-0.0,0.0,0.0,0.0,0.0,-0.022907446432425576,-0.010908307824964556,-0.2203478180642841,50.0625,19.937499999999993,-105.875
1772053525.556541,-7.016709298534876e-15,-0.0,0.0,0.0,0.0,0.0,0.0021816615649929098,-0.016362461737446838,-0.22362031041177347,50.0625,19.937499999999993,-105.875
1772053525.5779111,-7.016709298534876e-15,-0.0,0.0,0.0,0.0,0.0,0.004363323129985823,-0.009817477042468103,-0.22143864884678055,50.0625,19.937499999999993,-105.875
1772053525.5931609,-7.016709298534876e-15,-0.0,0.0,0.0,0.0,0.0,-0.0032724923474893707,-0.02181661564992912,-0.2203478180642841,50.8125,19.187499999999993,-105.0625
1772053525.608023,-7.016709298534876e-15,-0.0,0.0,0.0,0.0,0.0,-0.0032724923474893707,-0.02181661564992912,-0.2203478180642841,50.8125,19.187499999999993,-105.0625
1772053525.6324563,-7.016709298534876e-15,-0.0,0.0,0.0,0.0,0.0,-1.6030589114348251e-18,-0.013089969389957472,-0.2399827721492203,50.8125,19.187499999999993,-105.0625
1772053525.6584315,-7.016709298534876e-15,-0.0,0.0,0.0,0.0,0.0,0.005454153912482278,-0.017453292519943295,-0.24325526449670967,49.3125,19.187499999999993,-105.0625
1772053525.6977794,-7.016709298534876e-15,-0.0,0.0,0.0,0.0,0.0,-0.009817477042468103,-0.005454153912482279,-0.2694352032766246,49.3125,19.187499999999993,-105.0625
1772053525.7158291,-7.016709298534876e-15,-0.0,0.0,0.0,0.0,0.0,-0.0010908307824964577,-0.014180800172453928,-0.2476185876266955,49.3125,19.187499999999993,-105.0625
1772053525.7308955,-7.016709298534876e-15,-0.0,0.0,0.0,0.0,0.0,-0.0010908307824964577,-0.014180800172453928,-0.2476185876266955,49.3125,19.187499999999993,-105.0625
1772053525.7535253,-7.016709298534876e-15,-0.0,0.0,0.0,0.0,0.0,-0.0043633231299858265,-0.018544123302439753,-0.22362031041177347,48.1875,19.562499999999993,-104.25
1772053525.8011737,-7.016709298534876e-15,-0.0,0.0,0.0,0.0,0.0,-0.0043633231299858265,-0.018544123302439753,-0.22362031041177347,48.1875,19.562499999999993,-104.25
1772053525.8369076,-7.016709298534876e-15,-0.0,0.0,0.0,0.0,0.0,-0.007635815477475195,-0.020725784867432664,-0.22689280275926285,49.3125,19.937499999999993,-104.6875
1772053525.878708,-7.016709298534876e-15,-0.0,0.0,0.0,0.0,0.0,-0.007635815477475195,-0.020725784867432664,-0.22689280275926285,49.3125,19.937499999999993,-104.6875
1772053525.92099,-7.016709298534876e-15,-0.0,0.0,0.0,0.0,0.0,-0.004363323129985826,-0.016362461737446838,-0.23234695667174513,50.0625,18.062499999999993,-105.5
1772053525.9816942,-7.016709298534876e-15,-0.0,0.0,0.0,0.0,0.0,0.0010908307824964531,-0.022907446432425576,-0.20398535632683726,50.0625,18.062499999999993,-105.5
1772053526.0301049,-7.016709298534876e-15,-0.0,0.0,0.0,0.0,0.0,0.0021816615649929085,-0.028361600344907856,-0.210530341021816,48.5625,18.812499999999993,-103.5
1772053526.0624595,-7.016709298534876e-15,-0.0,0.0,0.0,0.0,0.0,-0.018544123302439756,-0.01854412330243975,-0.2476185876266955,48.5625,18.812499999999993,-103.5
1772053526.107717,-7.016709298534876e-15,-0.0,0.0,0.0,0.0,0.0,-0.001090830782496457,-0.008726646259971648,-0.23561944901923448,48.9375,19.562499999999993,-105.0625
1772053526.1322172,-7.016709298534876e-15,-0.0,0.0,0.0,0.0,0.0,-0.005454153912482281,-0.013089969389957472,-0.23452861823673804,48.9375,19.562499999999993,-105.0625
1772053526.1953182,-7.016709298534876e-15,-0.0,0.0,0.0,0.0,0.0,0.0010908307824964544,-0.013089969389957472,-0.1832595714594046,47.5,18.437499999999993,-102.3125
1772053526.2452831,-7.016709298534876e-15,-0.0,0.0,0.0,0.0,0.0,-0.003272492347489369,-0.007635815477475192,-0.1712604328519436,47.125,18.437499999999993,-103.5
1772053526.3132446,-7.016709298534876e-15,-0.0,0.0,0.0,0.0,0.0,-0.019634954084936207,-0.009817477042468102,-0.15489797111449674,47.125,18.437499999999993,-103.5
1772053526.3487854,-7.016709298534876e-15,-0.0,0.0,0.0,0.0,0.0,-0.007635815477475194,-0.014180800172453926,-0.1810779098944117,47.5,17.687499999999993,-104.6875
1772053526.395432,-7.016709298534876e-15,-0.0,0.0,0.0,0.0,0.0,0.0010908307824964538,-0.018544123302439753,-0.21707532571679475,47.5,17.687499999999993,-104.6875
1772053526.4356472,-7.016709298534876e-15,-0.0,0.0,0.0,0.0,0.0,-0.005454153912482282,-0.020725784867432664,-0.23125612588924865,47.125,16.999999999999993,-102.6875
1772053526.4993474,-7.016709298534876e-15,-0.0,0.0,0.0,0.0,0.0,-0.010908307824964563,-0.025089107997418487,-0.23671027980173096,46.75,17.312499999999993,-102.6875
1772053526.5342705,-7.016709298534876e-15,-0.0,0.0,0.0,0.0,0.0,0.004363323129985823,-0.007635815477475193,-0.22689280275926285,46.75,17.312499999999993,-102.6875
1772053526.5708928,-7.016709298534876e-15,-0.0,0.0,0.0,0.0,0.0,-0.015271630954950386,-0.016362461737446835,-0.2378011105842274,46.75,17.312499999999993,-102.6875
1772053526.6044867,-7.016709298534876e-15,-0.0,0.0,0.0,0.0,0.0,-0.001090830782496459,-0.02399827721492203,-0.21707532571679475,48.1875,17.312499999999993,-103.875
1772053526.6295583,-7.016709298534876e-15,-0.0,0.0,0.0,0.0,0.0,-0.00327249234748937,-0.015271630954950384,-0.2181661564992912,48.1875,17.312499999999993,-103.875
1772053526.656813,-7.016709298534876e-15,-0.0,0.0,0.0,0.0,0.0,-0.00327249234748937,-0.015271630954950384,-0.2181661564992912,48.1875,17.312499999999993,-103.875
1772053526.6771355,-7.016709298534876e-15,-0.0,0.0,0.0,0.0,0.0,0.0032724923474893646,-0.028361600344907856,-0.19634954084936207,47.125,18.812499999999993,-103.5
1772053526.7144039,-7.016709298534876e-15,-0.0,0.0,0.0,0.0,0.0,0.0021816615649929093,-0.022907446432425576,-0.15162547876700738,47.875,18.437499999999993,-103.5
1772053526.7452137,-7.016709298534876e-15,-0.0,0.0,0.0,0.0,0.0,-0.007635815477475193,-0.007635815477475191,-0.23234695667174513,47.875,18.437499999999993,-103.5
1772053526.786292,-7.016709298534876e-15,-0.0,0.0,0.0,0.0,0.0,-0.0021816615649929132,-0.009817477042468103,-0.2399827721492203,47.125,18.812499999999993,-103.875
1772053526.8422039,-7.016709298534876e-15,-0.0,0.0,0.0,0.0,0.0,-0.0021816615649929132,-0.009817477042468103,-0.2399827721492203,47.125,18.812499999999993,-103.875
1772053526.9056742,-7.016709298534876e-15,-0.0,0.0,0.0,0.0,0.0,0.010908307824964558,-0.007635815477475194,-0.2279836335417593,47.875,17.312499999999993,-103.875
1772053526.9368982,-7.016709298534876e-15,-0.0,0.0,0.0,0.0,0.0,-0.003272492347489368,-0.0010908307824964555,-0.23889194136672387,47.875,17.312499999999993,-103.875
1772053526.998037,-7.016709298534876e-15,-0.0,0.0,0.0,0.0,0.0,0.010908307824964556,-0.0272707695624114,-0.21598449493429828,46.375,18.062499999999993,-102.6875
1772053527.0274541,-7.016709298534876e-15,-0.0,0.0,0.0,0.0,0.0,-0.006544984694978739,-0.020725784867432664,-0.21271200258680892,46.375,18.062499999999993,-102.6875
1772053527.057669,-7.016709298534876e-15,-0.0,0.0,0.0,0.0,0.0,0.0098174770424681,-0.022907446432425576,-0.21598449493429828,48.5625,18.437499999999993,-104.25
1772053527.1052566,-7.016709298534876e-15,-0.0,0.0,0.0,0.0,0.0,-0.005454153912482282,-0.018544123302439753,-0.24325526449670967,48.5625,18.437499999999993,-104.25
1772053527.1551695,-7.016709298534876e-15,-0.0,0.0,0.0,0.0,0.0,-0.005454153912482282,-0.018544123302439753,-0.24325526449670967,48.5625,18.437499999999993,-104.25
1772053527.212485,-7.016709298534876e-15,-0.0,0.0,0.0,0.0,0.0,0.0010908307824964549,-0.008726646259971648,-0.1930770485018727,46.375,18.437499999999993,-104.25
1772053527.2789228,-7.016709298534876e-15,-0.0,0.0,0.0,0.0,0.0,-0.010908307824964561,-0.015271630954950382,-0.21380283336930536,46.75,19.187499999999993,-104.6875
1772053527.298976,-7.016709298534876e-15,-0.0,0.0,0.0,0.0,0.0,0.00763581547747519,-0.015271630954950386,-0.2181661564992912,46.75,19.187499999999993,-104.6875
1772053527.3215635,-7.016709298534876e-15,-0.0,0.0,0.0,0.0,0.0,0.003272492347489367,-0.009817477042468103,-0.2203478180642841,46.75,19.187499999999993,-104.6875
1772053527.3737884,-7.016709298534876e-15,-0.0,0.0,0.0,0.0,0.0,-0.011999138607461018,-0.026179938779914945,-0.21925698728178766,45.625,17.687499999999993,-105.875
1772053527.4065433,-7.016709298534876e-15,-0.0,0.0,0.0,0.0,0.0,0.010908307824964558,-0.010908307824964561,-0.21489366415180183,45.625,17.687499999999993,-105.875
1772053527.467294,-7.016709298534876e-15,-0.0,0.0,0.0,0.0,0.0,-0.013089969389957474,-0.018544123302439753,-0.22689280275926285,45.625,18.437499999999993,-105.4375
1772053527.5092707,-7.016709298534876e-15,-0.0,0.0,0.0,0.0,0.0,0.007635815477475189,-0.02399827721492203,-0.21380283336930536,45.625,18.437499999999993,-105.4375
1772053527.5501323,-7.016709298534876e-15,-0.0,0.0,0.0,0.0,0.0,0.007635815477475189,-0.02399827721492203,-0.21380283336930536,45.625,18.437499999999993,-105.4375
1772053527.5801165,-7.016709298534876e-15,-0.0,0.0,0.0,0.0,0.0,0.01527163095495038,-0.02290744643242558,-0.25743606466916363,46.0,19.187499999999993,-107.8125
1772053527.6338484,-7.016709298534876e-15,-0.0,0.0,0.0,0.0,0.0,0.009817477042468102,-0.011999138607461017,-0.2879793265790644,46.75,21.749999999999993,-107.4375
1772053527.6646762,-7.016709298534876e-15,-0.0,0.0,0.0,0.0,0.0,0.004363323129985822,-0.014180800172453928,-0.19853120241435498,46.75,21.749999999999993,-107.4375
1772053527.6910264,-7.016709298534876e-15,-0.0,0.0,0.0,0.0,0.0,-0.01636246173744684,-0.014180800172453926,-0.16144295580947549,46.0,19.187499999999993,-106.6875
1772053527.7246249,-7.016709298534876e-15,-0.0,0.0,0.0,0.0,0.0,-0.0032724923474893694,-0.01090830782496456,-0.17016960206944712,46.0,19.187499999999993,-106.6875
1772053527.780268,-7.016709298534876e-15,-0.0,0.0,0.0,0.0,0.0,-0.005454153912482281,-0.015271630954950384,-0.21162117180431245,45.25,18.812499999999993,-106.625
1772053527.803906,-7.016709298534876e-15,-0.0,0.0,0.0,0.0,0.0,-0.006544984694978738,-0.014180800172453928,-0.26070855701665296,45.25,18.812499999999993,-106.625
1772053527.8270247,-7.016709298534876e-15,-0.0,0.0,0.0,0.0,0.0,0.002181661564992911,-0.00545415391248228,-0.26725354171163174,46.0,18.062499999999993,-105.875
1772053527.8974087,-7.016709298534876e-15,-0.0,0.0,0.0,0.0,0.0,0.04036073895236887,-0.014180800172453933,-0.13308135546456762,45.625,18.437499999999993,-107.0625
1772053527.9260604,-7.016709298534876e-15,-0.0,0.0,0.0,0.0,0.0,-0.008726646259971648,-0.002181661564992911,-0.11671889372712078,45.625,18.437499999999993,-107.0625
1772053527.9673638,-7.016709298534876e-15,-0.0,0.0,0.0,0.0,0.0,0.00218166156499291,-0.014180800172453928,0.007635815477475192,46.0,19.187499999999993,-107.0625
1772053528.009251,-7.016709298534876e-15,-0.0,0.0,0.0,0.0,0.0,-0.013089969389957467,0.04799655442984406,0.08726646259971647,46.0,19.187499999999993,-107.0625
1772053528.069872,-7.016709298534876e-15,-0.0,0.0,0.0,0.0,0.0,0.010908307824964556,-0.02181661564992912,0.04690572364734761,46.0,19.187499999999993,-107.0625
1772053528.1116664,-7.016709298534876e-15,-0.0,0.0,0.0,0.0,0.0,-0.003272492347489368,4.007647278587063e-19,0.050178215994836975,45.625,19.937499999999993,-107.8125
1772053528.149366,-7.016709298534876e-15,-0.0,0.0,0.0,0.0,0.0,-0.0021816615649929132,-0.01090830782496456,0.05345070834232634,45.625,19.937499999999993,-107.8125
1772053528.1661332,-7.016709298534876e-15,-0.0,0.0,0.0,0.0,0.0,-0.0021816615649929132,-0.01090830782496456,0.05345070834232634,45.625,19.937499999999993,-107.8125
1772053528.1900558,-7.016709298534876e-15,-0.0,0.0,0.0,0.0,0.0,0.004363323129985825,0.006544984694978735,0.037088246604879506,46.0,19.187499999999993,-107.8125
1772053528.2140808,-7.016709298534876e-15,-0.0,0.0,0.0,0.0,0.0,-0.003272492347489369,-0.008726646259971648,-0.003272492347489368,46.0,19.187499999999993,-107.8125
1772053528.2829154,-7.016709298534876e-15,-0.0,0.0,0.0,0.0,0.0,0.0032724923474893694,0.011999138607461015,0.031634092692397225,45.625,19.187499999999993,-107.8125
1772053528.376125,-7.016709298534876e-15,-0.0,0.0,0.0,0.0,0.0,-0.0010908307824964549,0.008726646259971648,-0.038179077387375956,44.875,19.937499999999993,-107.875
1772053528.4375448,-7.016709298534876e-15,-0.0,0.0,0.0,0.0,0.0,-0.002181661564992912,0.0010908307824964562,-0.02181661564992912,44.875,19.937499999999993,-107.875
1772053528.4767203,-7.016709298534876e-15,-0.0,0.0,0.0,0.0,0.0,-0.002181661564992912,0.0010908307824964562,-0.018544123302439753,44.875,19.937499999999993,-107.875
1772053528.5039675,-7.016709298534876e-15,-0.0,0.0,0.0,0.0,0.0,-0.0032724923474893677,0.004363323129985824,-0.013089969389957472,45.25,18.812499999999993,-107.8125
1772053528.565017,-7.016709298534876e-15,-0.0,0.0,0.0,0.0,0.0,-0.0010908307824964558,0.0010908307824964562,-0.001090830782496456,47.5,19.937499999999993,-107.8125
1772053528.6277916,-7.016709298534876e-15,-0.0,0.0,0.0,0.0,0.0,0.002181661564992913,0.00545415391248228,0.014180800172453928,45.25,18.437499999999993,-105.875
1772053528.6572273,-7.016709298534876e-15,-0.0,0.0,0.0,0.0,0.0,0.002181661564992913,0.00545415391248228,0.014180800172453928,45.25,18.437499999999993,-105.875
1772053528.6848469,-7.016709298534876e-15,-0.0,0.0,0.0,0.0,0.0,0.0032724923474893686,0.0032724923474893677,0.011999138607461015,45.25,18.437499999999993,-105.875
1772053528.731417,-7.016709298534876e-15,-0.0,0.0,0.0,0.0,0.0,0.004363323129985825,0.008726646259971648,0.007635815477475192,46.0,20.312499999999993,-107.0625
1772053528.7610416,-7.016709298534876e-15,-0.0,0.0,0.0,0.0,0.0,-0.0010908307824964564,-0.003272492347489368,0.05345070834232634,46.0,20.312499999999993,-107.0625
1772053528.8212793,-7.016709298534876e-15,-0.0,0.0,0.0,0.0,0.0,-0.004363323129985824,0.0010908307824964564,0.05672320068981571,45.625,19.562499999999993,-108.25
1772053528.8449972,-7.016709298534876e-15,-0.0,0.0,0.0,0.0,0.0,-0.006544984694978736,8.015294557174126e-19,0.003272492347489368,45.625,19.562499999999993,-108.25
1772053528.8634472,-7.016709298534876e-15,-0.0,0.0,0.0,0.0,0.0,-0.006544984694978736,8.015294557174126e-19,0.003272492347489368,45.625,19.562499999999993,-108.25
1772053528.883841,-7.016709298534876e-15,-0.0,0.0,0.0,0.0,0.0,-0.004363323129985824,-0.0010908307824964555,0.01090830782496456,45.625,19.187499999999993,-107.0625
1772053528.9071288,-7.016709298534876e-15,-0.0,0.0,0.0,0.0,0.0,-0.0010908307824964553,0.00545415391248228,0.022907446432425576,45.625,19.187499999999993,-107.0625
1772053528.944016,-7.016709298534876e-15,-0.0,0.0,0.0,0.0,0.0,0.0021816615649929115,-0.0021816615649929124,0.016362461737446838,45.625,19.187499999999993,-107.0625
1772053528.9872956,-7.016709298534876e-15,-0.0,0.0,0.0,0.0,0.0,0.001090830782496457,0.008726646259971648,-0.02181661564992912,46.0,19.187499999999993,-107.8125
1772053529.0163817,-7.016709298534876e-15,-0.0,0.0,0.0,0.0,0.0,0.002181661564992913,0.00545415391248228,-0.018544123302439753,46.0,19.187499999999993,-107.8125
1772053529.055741,-7.016709298534876e-15,-0.0,0.0,0.0,0.0,0.0,0.006544984694978739,0.02399827721492203,-0.003272492347489368,46.375,19.187499999999993,-107.0625
1772053529.1049597,-7.016709298534876e-15,-0.0,0.0,0.0,0.0,0.0,0.006544984694978739,0.02399827721492203,-0.003272492347489368,46.375,19.187499999999993,-107.0625
1772053529.140425,-7.016709298534876e-15,-0.0,0.0,0.0,0.0,0.0,-0.001090830782496456,1.3358824261956874e-19,-0.00545415391248228,46.375,19.187499999999993,-107.0625
1772053529.2064335,-7.016709298534876e-15,-0.0,0.0,0.0,0.0,0.0,-0.014180800172453926,0.0174532925199433,0.13744467859455345,46.0,20.624999999999993,-107.0625
1772053529.2286162,-7.016709298534876e-15,-0.0,0.0,0.0,0.0,0.0,-0.014180800172453926,0.0174532925199433,0.13744467859455345,46.0,20.624999999999993,-107.0625
1772053529.3264503,-7.016709298534876e-15,-0.0,0.0,0.0,0.0,0.0,0.01308996938995747,-0.019634954084936207,-0.27707101875409984,46.75,20.999999999999993,-108.625
1772053529.3540754,-7.016709298534876e-15,-0.0,0.0,0.0,0.0,0.0,0.006544984694978735,-0.009817477042468103,-0.14508049407202864,46.75,20.999999999999993,-108.625
1772053529.4023905,-7.016709298534876e-15,-0.0,0.0,0.0,0.0,0.0,-0.01418080017245393,-0.01854412330243975,-0.17889624832941878,46.375,18.437499999999993,-108.625
1772053529.4261332,-7.016709298534876e-15,-0.0,0.0,0.0,0.0,0.0,0.00436332312998582,-0.026179938779914945,-0.2781618495365963,46.375,18.437499999999993,-108.625
1772053529.5063457,-7.016709298534876e-15,-0.0,0.0,0.0,0.0,0.0,0.00436332312998582,-0.026179938779914945,-0.2781618495365963,46.375,18.437499999999993,-108.625
1772053529.5263577,-7.016709298534876e-15,-0.0,0.0,0.0,0.0,0.0,-0.00872664625997165,-0.01308996938995747,-0.39051742013373125,47.125,21.374999999999993,-108.625
1772053529.5600636,-7.016709298534876e-15,-0.0,0.0,0.0,0.0,0.0,-0.025089107997418484,0.0174532925199433,-0.284706834231575,47.125,21.374999999999993,-108.625
1772053529.5952442,-7.016709298534876e-15,-0.0,0.0,0.0,0.0,0.0,0.0032724923474893638,-0.037088246604879506,-0.1341721862470641,44.875,20.624999999999993,-108.25
1772053529.6293604,-7.016709298534876e-15,-0.0,0.0,0.0,0.0,0.0,0.005454153912482276,-0.0272707695624114,-0.0719948316447661,44.875,20.624999999999993,-108.25
1772053529.6643224,-7.016709298534876e-15,-0.0,0.0,0.0,0.0,0.0,-4.007647278587063e-19,-0.003272492347489368,-0.11780972450961724,44.875,20.999999999999993,-109.0625
1772053529.7038667,-7.016709298534876e-15,-0.0,0.0,0.0,0.0,0.0,-2.538176609771806e-18,-0.020725784867432664,-0.16471544815696484,44.875,20.999999999999993,-109.0625
1772053529.730557,-7.016709298534876e-15,-0.0,0.0,0.0,0.0,0.0,-0.007635815477475195,-0.018544123302439753,-0.19853120241435498,44.875,19.937499999999993,-110.625
1772053529.7908542,-7.016709298534876e-15,-0.0,0.0,0.0,0.0,0.0,-0.0032724923474893707,-0.022907446432425576,-0.2596177262341565,44.5625,21.374999999999993,-109.0625
1772053529.8253293,-7.016709298534876e-15,-0.0,0.0,0.0,0.0,0.0,-0.004363323129985826,-0.013089969389957472,-4.486587008407923,44.5625,21.374999999999993,-109.0625
1772053529.8584132,-7.016709298534876e-15,-0.0,0.0,0.0,0.0,0.0,0.02945243112740431,-0.00654498469497874,-0.23889194136672387,44.5625,21.374999999999993,-109.0625
1772053529.8920045,-7.016709298534876e-15,-0.0,0.0,0.0,0.0,0.0,0.011999138607461017,0.018544123302439753,0.07853981633974483,44.875,20.312499999999993,-110.25
1772053529.9360332,-7.016709298534876e-15,-0.0,0.0,0.0,0.0,0.0,-0.031634092692397225,-0.005454153912482276,-0.05235987755982989,45.25,22.124999999999993,-111.4375
1772053530.0382884,-7.016709298534876e-15,-0.0,0.0,0.0,0.0,0.0,-0.016362461737446838,-0.010908307824964558,-0.3097959422289935,45.25,22.124999999999993,-111.4375
1772053530.0930643,-7.016709298534876e-15,-0.0,0.0,0.0,0.0,0.0,-0.002181661564992911,0.006544984694978736,-0.16798794050445423,45.625,26.562499999999993,-112.625
1772053530.1381457,-7.016709298534876e-15,-0.0,0.0,0.0,0.0,0.0,-0.009817477042468103,-0.0021816615649929106,0.061086523819801536,45.625,26.562499999999993,-112.625
1772053530.1902213,-7.016709298534876e-15,-0.0,0.0,0.0,0.0,0.0,0.0010908307824964553,-0.00545415391248228,0.06654067773228381,44.875,23.249999999999993,-109.0625
1772053530.2275255,-7.016709298534876e-15,-0.0,0.0,0.0,0.0,0.0,0.0010908307824964564,0.004363323129985824,0.004363323129985824,44.875,23.249999999999993,-109.0625
1772053530.2514555,-7.016709298534876e-15,-0.0,0.0,0.0,0.0,0.0,-0.010908307824964558,0.011999138607461017,-0.020725784867432664,44.1875,21.749999999999993,-109.8125
1772053530.2668865,-7.016709298534876e-15,-0.0,0.0,0.0,0.0,0.0,0.007635815477475192,-0.0010908307824964568,-0.022907446432425576,44.1875,21.749999999999993,-109.8125
1772053530.321716,-7.016709298534876e-15,-0.0,0.0,0.0,0.0,0.0,0.006544984694978735,-0.008726646259971648,0.013089969389957472,44.875,21.749999999999993,-109.4375
1772053530.3655503,-7.016709298534876e-15,-0.0,0.0,0.0,0.0,0.0,0.00545415391248228,-6.679412130978437e-19,0.02945243112740431,44.875,21.749999999999993,-109.4375
1772053530.4016702,-7.016709298534876e-15,-0.0,0.0,0.0,0.0,0.0,-0.004363323129985826,-0.011999138607461015,0.001090830782496456,43.4375,22.124999999999996,-110.625
1772053530.419092,-7.016709298534876e-15,-0.0,0.0,0.0,0.0,0.0,0.0010908307824964568,0.007635815477475192,0.00545415391248228,43.4375,22.124999999999996,-110.625
1772053530.4394326,-7.016709298534876e-15,-0.0,0.0,0.0,0.0,0.0,0.003272492347489369,0.008726646259971648,-0.014180800172453928,43.4375,22.124999999999996,-110.625
1772053530.4685829,-7.016709298534876e-15,-0.0,0.0,0.0,0.0,0.0,0.00327249234748937,0.014180800172453928,-0.008726646259971648,43.8125,21.749999999999993,-109.8125
1772053530.4877174,-7.016709298534876e-15,-0.0,0.0,0.0,0.0,0.0,1.3358824261956874e-19,0.001090830782496456,0.00545415391248228,43.8125,21.749999999999993,-109.8125
1772053530.5073066,-7.016709298534876e-15,-0.0,0.0,0.0,0.0,0.0,0.0010908307824964564,0.004363323129985824,0.003272492347489368,43.8125,21.749999999999993,-109.8125
1772053530.5245738,-7.016709298534876e-15,-0.0,0.0,0.0,0.0,0.0,0.0010908307824964564,0.004363323129985824,0.003272492347489368,43.8125,21.749999999999993,-109.8125
1772053530.5378287,-7.016709298534876e-15,-0.0,0.0,0.0,0.0,0.0,0.0010908307824964564,0.004363323129985824,0.003272492347489368,43.8125,21.749999999999993,-109.8125
1772053530.551519,-7.016709298534876e-15,-0.0,0.0,0.0,0.0,0.0,0.003272492347489368,0.0010908307824964555,0.002181661564992912,43.4375,21.374999999999996,-109.8125
1772053530.5719402,-7.016709298534876e-15,-0.0,0.0,0.0,0.0,0.0,0.004363323129985824,0.0032724923474893677,0.003272492347489368,43.4375,21.374999999999996,-109.8125
1772053530.5882447,-7.016709298534876e-15,-0.0,0.0,0.0,0.0,0.0,0.002181661564992913,0.00545415391248228,-0.017453292519943295,43.4375,21.374999999999996,-109.8125
1772053530.6031241,-7.016709298534876e-15,-0.0,0.0,0.0,0.0,0.0,0.0032724923474893686,0.0032724923474893677,-0.028361600344907856,43.4375,20.624999999999996,-109.8125
1772053530.6188834,-7.016709298534876e-15,-0.0,0.0,0.0,0.0,0.0,0.0032724923474893686,0.0032724923474893677,-0.028361600344907856,43.4375,20.624999999999996,-109.8125
1772053530.6436477,-7.016709298534876e-15,-0.0,0.0,0.0,0.0,0.0,-0.0032724923474893686,-0.004363323129985824,-0.02399827721492203,43.4375,20.624999999999996,-109.8125
1772053530.6721053,-7.016709298534876e-15,-0.0,0.0,0.0,0.0,0.0,0.0032724923474893677,-0.0032724923474893686,-0.015271630954950384,44.1875,21.374999999999993,-109.4375
1772053530.6915805,-7.016709298534876e-15,-0.0,0.0,0.0,0.0,0.0,0.002181661564992911,-0.00545415391248228,-0.001090830782496456,44.1875,21.374999999999993,-109.4375
1772053530.7096684,-7.016709298534876e-15,-0.0,0.0,0.0,0.0,0.0,0.004363323129985824,-5.343529704782749e-19,0.001090830782496456,44.1875,21.374999999999993,-109.4375
1772053530.7724736,-7.016709298534876e-15,-0.0,0.0,0.0,0.0,0.0,0.003272492347489368,-0.0010908307824964564,-0.003272492347489368,43.4375,21.374999999999996,-110.625
1772053530.8041925,-7.016709298534876e-15,-0.0,0.0,0.0,0.0,0.0,0.004363323129985824,-0.0032724923474893686,-0.007635815477475192,43.4375,21.374999999999996,-110.625
1772053530.8234367,-7.016709298534876e-15,-0.0,0.0,0.0,0.0,0.0,-5.343529704782749e-19,-0.004363323129985824,-0.001090830782496456,44.5625,22.499999999999993,-111.4375
1772053530.846094,-7.016709298534876e-15,-0.0,0.0,0.0,0.0,0.0,0.003272492347489369,0.006544984694978736,-0.008726646259971648,44.5625,22.499999999999993,-111.4375
1772053530.9346704,-7.016709298534876e-15,-0.0,0.0,0.0,0.0,0.0,0.004363323129985825,0.005454153912482279,-0.01090830782496456,44.5625,20.624999999999993,-109.0625
1772053530.994463,-7.016709298534876e-15,-0.0,0.0,0.0,0.0,0.0,0.004363323129985825,0.006544984694978735,-0.002181661564992912,43.8125,22.499999999999993,-109.0625
1772053531.038274,-7.016709298534876e-15,-0.0,0.0,0.0,0.0,0.0,-0.0021816615649929124,-0.0032724923474893677,-0.017453292519943295,43.8125,22.499999999999993,-109.0625
1772053531.0599666,-7.016709298534876e-15,-0.0,0.0,0.0,0.0,0.0,-0.0021816615649929124,-0.0032724923474893677,-0.017453292519943295,43.8125,22.499999999999993,-109.0625
1772053531.0812063,-7.016709298534876e-15,-0.0,0.0,0.0,0.0,0.0,0.003272492347489369,0.00545415391248228,-0.02181661564992912,44.875,21.749999999999993,-109.8125
1772053531.1338046,-7.016709298534876e-15,-0.0,0.0,0.0,0.0,0.0,-0.003272492347489368,4.007647278587063e-19,-0.003272492347489368,42.6875,21.374999999999996,-109.4375
1772053531.1744943,-7.016709298534876e-15,-0.0,0.0,0.0,0.0,0.0,0.0021816615649929115,-0.0021816615649929124,0.016362461737446838,42.6875,21.374999999999996,-109.4375
1772053531.197199,-7.016709298534876e-15,-0.0,0.0,0.0,0.0,0.0,-0.002181661564992912,-0.0010908307824964558,0.00545415391248228,42.6875,21.374999999999996,-109.4375
1772053531.2259367,-7.016709298534876e-15,-0.0,0.0,0.0,0.0,0.0,0.002181661564992913,0.007635815477475192,-0.011999138607461015,44.1875,20.999999999999993,-109.8125
1772053531.2724633,-7.016709298534876e-15,-0.0,0.0,0.0,0.0,0.0,-0.0032724923474893673,0.00545415391248228,-0.05890486225480862,41.9375,21.749999999999996,-110.25
1772053531.3570879,-7.016709298534876e-15,-0.0,0.0,0.0,0.0,0.0,1.3358824261956874e-19,0.001090830782496456,0.006544984694978736,44.5625,22.124999999999993,-109.8125
1772053531.4528012,-7.016709298534876e-15,-0.0,0.0,0.0,0.0,0.0,-0.003272492347489368,-0.0010908307824964555,-0.006544984694978736,44.5625,22.124999999999993,-109.8125
1772053531.5158577,-7.016709298534876e-15,-0.0,0.0,0.0,0.0,0.0,-0.004363323129985824,-0.0010908307824964555,0.008726646259971648,43.8125,21.749999999999993,-109.0625
1772053531.5651233,-7.016709298534876e-15,-0.0,0.0,0.0,0.0,0.0,-0.0032724923474893677,0.0021816615649929124,-0.018544123302439753,43.8125,21.749999999999993,-109.0625
1772053531.6068578,-7.016709298534876e-15,-0.0,0.0,0.0,0.0,0.0,0.0010908307824964562,0.002181661564992912,0.02181661564992912,44.875,22.874999999999993,-109.8125
1772053531.6432211,-7.016709298534876e-15,-0.0,0.0,0.0,0.0,0.0,0.0010908307824964562,0.002181661564992912,0.02181661564992912,44.875,22.874999999999993,-109.8125
1772053531.6870635,-7.016709298534876e-15,-0.0,0.0,0.0,0.0,0.0,4.007647278587063e-19,0.003272492347489368,0.015271630954950384,44.5625,22.124999999999993,-110.25
1772053531.70762,-7.016709298534876e-15,-0.0,0.0,0.0,0.0,0.0,0.003272492347489369,0.008726646259971648,-0.0272707695624114,44.5625,22.124999999999993,-110.25
1772053531.8103745,-7.016709298534876e-15,-0.0,0.0,0.0,0.0,0.0,0.0021816615649929124,0.0032724923474893677,0.007635815477475192,45.25,22.874999999999993,-110.25
1772053531.8633406,-7.016709298534876e-15,-0.0,0.0,0.0,0.0,0.0,0.0021816615649929124,0.0032724923474893677,0.007635815477475192,45.25,22.874999999999993,-110.25
1772053531.896761,-7.016709298534876e-15,-0.0,0.0,0.0,0.0,0.0,-0.0021816615649929115,0.004363323129985824,-0.01090830782496456,44.1875,22.124999999999993,-110.625
1772053531.9381506,-7.016709298534876e-15,-0.0,0.0,0.0,0.0,0.0,0.0010908307824964562,0.0010908307824964558,0.016362461737446838,44.1875,22.124999999999993,-110.625
1772053531.9653256,-7.016709298534876e-15,-0.0,0.0,0.0,0.0,0.0,6.679412130978437e-19,0.00545415391248228,0.026179938779914945,42.6875,22.124999999999996,-109.8125
1772053532.0078423,-7.016709298534876e-15,-0.0,0.0,0.0,0.0,0.0,0.0021816615649929124,0.0032724923474893677,0.007635815477475192,42.6875,22.124999999999996,-109.8125
1772053532.0508018,-7.016709298534876e-15,-0.0,0.0,0.0,0.0,0.0,0.0032724923474893686,0.0032724923474893677,-0.020725784867432664,42.3125,22.499999999999996,-109.4375
1772053532.0764632,-7.016709298534876e-15,-0.0,0.0,0.0,0.0,0.0,0.0010908307824964562,0.0010908307824964558,-0.01090830782496456,42.3125,22.499999999999996,-109.4375
1772053532.1401384,-7.016709298534876e-15,-0.0,0.0,0.0,0.0,0.0,0.002181661564992912,0.0010908307824964558,0.003272492347489368,44.875,19.562499999999993,-109.875
1772053532.1911502,-7.016709298534876e-15,-0.0,0.0,0.0,0.0,0.0,0.002181661564992912,0.0010908307824964558,0.003272492347489368,44.875,19.562499999999993,-109.875
1772053532.2478538,-7.016709298534876e-15,-0.0,0.0,0.0,0.0,0.0,5.343529704782749e-19,0.004363323129985824,-0.014180800172453928,42.3125,20.624999999999996,-110.625
1772053532.3297336,-7.016709298534876e-15,-0.0,0.0,0.0,0.0,0.0,0.0054541539124822805,0.006544984694978735,0.020725784867432664,44.5625,21.749999999999993,-109.0625
1772053532.3801775,-7.016709298534876e-15,-0.0,0.0,0.0,0.0,0.0,0.003272492347489369,0.00545415391248228,-0.00545415391248228,44.5625,22.499999999999993,-110.625
1772053532.4186816,-7.016709298534876e-15,-0.0,0.0,0.0,0.0,0.0,0.006544984694978736,0.001090830782496455,-0.02399827721492203,44.5625,22.499999999999993,-110.625
