timestamp,yaw,pitch,roll,ax,ay,az,gx,gy,gz,mx,my,mz
1772057698.1399286,-0.08001710090520489,1.3405332636525424,-6.831796799255216,-0.20590764761316205,-1.1583634208829974,9.587323596451546,-0.001090830782496456,0.001090830782496456,0.0,5.5625,20.0625,-54.5
1772057698.152347,-0.08001710090520489,1.3405332636525424,-6.831796799255216,-0.20727658520113085,-1.1589108748794212,9.648430894067639,0.001090830782496456,0.004363323129985824,-0.002181661564992912,5.5625,20.0625,-54.5
1772057698.1641448,-0.08001710090520489,1.3405332636525424,-6.831796799255216,-0.20818759787388924,-1.1592751993985795,9.689097118017909,0.0,0.003272492347489368,0.002181661564992912,6.25,21.5625,-54.75
1772057698.1830332,-0.08001710090520489,1.3405332636525424,-6.831796799255216,-0.20818759787388924,-1.1592751993985795,9.689097118017909,0.0,0.003272492347489368,0.002181661564992912,6.25,21.5625,-54.75
1772057698.1980877,-0.08001710090520489,1.3405332636525424,-6.831796799255216,-0.20818759787388924,-1.1592751993985795,9.689097118017909,0.0,0.003272492347489368,0.002181661564992912,6.25,21.5625,-54.75
1772057698.2102225,-0.08001710090520489,1.3405332636525424,-6.831796799255216,-0.2087938666309316,-1.1662078767109467,9.726195370907284,-0.001090830782496456,0.001090830782496456,0.002181661564992912,6.25,21.5625,-54.75
1772057698.233782,-0.08001710090520489,1.3405332636525424,-6.831796799255216,-0.2087938666309316,-1.1662078767109467,9.726195370907284,-0.001090830782496456,0.001090830782496456,0.002181661564992912,6.25,21.5625,-54.75
1772057698.2474947,-0.08001710090520489,1.3405332636525424,-6.831796799255216,-0.20250710830163876,-1.1708214960192471,9.750883843790525,0.001090830782496456,0.0,0.0,6.25,21.0,-55.1875
1772057698.2720969,-0.08001710090520489,1.3405332636525424,-6.831796799255216,-0.20250710830163876,-1.1708214960192471,9.750883843790525,0.001090830782496456,0.0,0.0,6.25,21.0,-55.1875
1772057698.2868223,-0.08001710090520489,1.3405332636525424,-6.831796799255216,-0.20250710830163876,-1.1708214960192471,9.750883843790525,0.001090830782496456,0.0,0.0,6.25,21.0,-55.1875
1772057698.3194103,0.00041903402771494794,1.3335156872304472,-6.83160167882127,-0.20166845256850582,-1.1738918081314165,9.757278411584052,-0.001090830782496456,-0.001090830782496456,-0.001090830782496456,6.25,21.0,-55.1875
1772057698.3345945,0.00041903402771494794,1.3335156872304472,-6.83160167882127,-0.19612276643989004,-1.176210111063714,9.76153392501864,0.002181659437453204,3.04682436165548e-06,0.001090830782496456,5.97127735475553,20.570859316095277,-54.75
1772057698.3467808,0.00041903402771494794,1.3335156872304472,-6.83160167882127,-0.19612276643989004,-1.176210111063714,9.76153392501864,0.002181659437453204,3.04682436165548e-06,0.001090830782496456,5.97127735475553,20.570859316095277,-54.75
1772057698.362352,0.00041903402771494794,1.3335156872304472,-6.83160167882127,-0.19686842397000617,-1.1775709193964687,9.764365921672159,-0.0010893063065457744,-0.0010923531309074298,0.002181661564992912,5.97127735475553,20.570859316095277,-54.75
1772057698.3822844,0.00041903402771494794,1.3335156872304472,-6.83160167882127,-0.19686842397000617,-1.1775709193964687,9.764365921672159,-0.0010893063065457744,-0.0010923531309074298,0.002181661564992912,5.97127735475553,20.570859316095277,-54.75
1772057698.4067528,0.00041903402771494794,1.3335156872304472,-6.83160167882127,-0.20406421092501875,-1.1717956485581846,9.77294080722424,0.0010862594821841188,0.003274012568360634,-0.001090830782496456,5.97127735475553,20.570859316095277,-54.75
1772057698.4586122,0.00041903402771494794,1.3335156872304472,-6.83160167882127,-0.20406421092501875,-1.1717956485581846,9.77294080722424,0.0010862594821841188,0.003274012568360634,-0.001090830782496456,5.97127735475553,20.570859316095277,-54.75
1772057698.487333,16.672700384400063,1.3367462462777506,-6.828546103469511,-0.20885292676137246,-1.167952270329309,9.78199240947872,0.0010862594821841188,0.003274012568360634,0.003272492347489368,5.533777781402191,20.570248320476335,-54.0
1772057698.5479355,16.672700384400063,1.3367462462777506,-6.828546103469511,-0.21203976365700494,-1.16539454505134,9.788016149666054,0.001090829718726602,1.52341218082774e-06,-0.001090830782496456,5.533777781402191,20.570248320476335,-54.0
1772057698.592768,16.672700384400063,1.3367462462777506,-6.828546103469511,-0.21203976365700494,-1.16539454505134,9.788016149666054,0.001090829718726602,1.52341218082774e-06,-0.001090830782496456,5.533777781402191,20.570248320476335,-54.0
1772057698.6437893,16.672700384400063,1.3367462462777506,-6.828546103469511,-0.21203976365700494,-1.16539454505134,9.788016149666054,0.001090829718726602,1.52341218082774e-06,-0.001090830782496456,5.533777781402191,20.570248320476335,-54.0
1772057698.6967955,16.77876656441588,1.3361244221082889,-6.828239597157406,-0.21081545956655567,-1.163687735796577,9.78198954634918,0.0010893063065457744,0.0010923531309074298,-0.001090830782496456,5.97127735475553,20.570859316095277,-54.375
1772057698.7468214,16.793595872305033,1.3370659917517531,-6.8283577262292985,-0.2100006988707345,-1.1625518733038405,9.777978909163371,-1.52341218082774e-06,0.001090829718726602,0.002181661564992912,5.97127735475553,20.570859316095277,-54.375
1772057698.7780883,16.793996287719615,1.3301579697335548,-6.8293678773948026,-0.20945848472913883,-1.1617959695033402,9.775309874917967,-3.04682436165548e-06,0.002181659437453204,-0.001090830782496456,5.5349124875516535,19.757749112820132,-53.5625
1772057698.7966766,16.991912649487894,1.335020811424179,-6.828030147075089,-0.20909764727483576,-1.1612929239681056,9.773533662442718,-0.002181659437453204,-3.04682436165548e-06,0.002181661564992912,5.5349124875516535,19.757749112820132,-53.5625
1772057698.9330776,17.041691238097368,1.3310564755923804,-6.828461900942576,-0.2053448189218037,-1.166301935394493,9.77713621828495,-1.52341218082774e-06,0.001090829718726602,-0.001090830782496456,5.5349124875516535,19.757749112820132,-52.5
1772057698.9978619,17.055506201949765,1.331856417549621,-6.828178460423541,-0.20300559687964348,-1.1709771391701764,9.778094185259171,3.04682436165548e-06,-0.002181659437453204,0.0,5.970666359136588,21.008358889448616,-53.5625
1772057699.029912,17.055506201949765,1.331856417549621,-6.828178460423541,-0.20145354239534663,-1.1707433266122536,9.778731701579323,-0.0010923531309074298,0.0010893063065457742,0.001090830782496456,5.970666359136588,21.008358889448616,-53.5625
1772057699.067495,17.062413499865126,1.3322563520636475,-6.828036671625196,-0.20376577591882367,-1.1705923986207518,9.779155961568861,-1.52341218082774e-06,0.001090829718726602,0.0,5.970317218782907,21.25835864565052,-54.0625
1772057699.1054635,17.225790656969274,1.3351154740400166,-6.827397338336284,-0.20530454149935673,-1.1704919577283834,9.779438301852604,0.0,0.0,0.002181661564992912,5.970317218782907,21.25835864565052,-54.0625
1772057699.1559694,17.225790656969274,1.3351154740400166,-6.827397338336284,-0.20530454149935673,-1.1704919577283834,9.779438301852604,0.0,0.0,0.002181661564992912,5.970317218782907,21.25835864565052,-54.0625
1772057699.20753,17.246907861639002,1.3294106217827981,-6.828006896584813,-0.2063285728040637,-1.1704251154365106,9.779626196157487,-4.57023654248322e-06,0.0032724891561798065,0.001090830782496456,5.97127735475553,20.570859316095277,-54.75
1772057699.2271616,17.282188536521108,1.3336299843674928,-6.84150531642151,-0.20701005419816695,-1.1703806326379467,9.776406126011151,-0.018538011569628927,-0.00438921688198048,0.006544984694978736,5.97127735475553,20.570859316095277,-54.75
1772057699.2900684,17.282188536521108,1.3336299843674928,-6.84150531642151,-0.20701005419816695,-1.1703806326379467,9.776406126011151,-0.018538011569628927,-0.00438921688198048,0.006544984694978736,5.97127735475553,20.570859316095277,-54.75
1772057699.3851898,17.79632064446148,1.3824827905376649,-6.860810793182142,-0.23064004488615342,-1.5493502252187872,9.655840945698484,-0.005455672005813837,0.0010832126578224632,0.013089969389957472,6.221800821487959,20.196208822146094,-53.5625
1772057699.468405,17.64356127035712,1.3328868292309626,-6.876114670076576,-0.23279460046510467,-1.7303150522467026,9.643851748992745,-0.003264872095275668,-0.005458718830175493,-0.055632369907319255,4.846278451846944,20.569288184503712,-54.0
1772057699.5094793,17.64356127035712,1.3328868292309626,-6.876114670076576,-0.23279460046510467,-1.7303150522467026,9.643851748992745,-0.003264872095275668,-0.005458718830175493,-0.055632369907319255,4.846278451846944,20.569288184503712,-54.0
1772057699.540202,17.806150725158563,1.3496084132116042,-6.873318962164224,-0.28140098210512354,-1.6066176097803304,9.635873072513178,-0.0054571954179946655,0.0021740423765490655,0.016362461737446838,4.846278451846944,20.569288184503712,-54.0
1772057699.5864954,17.939778166838828,1.3667286834314836,-6.884462315857362,-0.2368665517255415,-1.4840495942270444,9.627218240736362,-0.010912867423808502,0.0032572550343715288,0.06872233929727672,5.97127735475553,20.570859316095277,-55.25
1772057699.6162665,17.960475260372313,1.3679342776462862,-6.884019664737659,-0.3209630729266406,-1.4026407852846836,9.621458546869697,-0.008705309979281229,-0.01528380335961905,0.03490658503988659,5.97127735475553,20.570859316095277,-55.25
1772057699.6803756,18.052278029682505,1.3698125521341067,-6.904679438882592,-0.23307001860726828,-1.361643684990942,9.66111198713658,-0.002178612613091549,-0.0021847062618148595,0.055632369907319255,5.533777781402191,20.570248320476335,-54.5
1772057699.7589808,17.95272994431987,1.377667695828013,-6.903784241582521,-0.22140969102016272,-1.334425975868212,9.700881355505517,-0.004369412523629719,0.004357225226183097,0.05235987755982989,5.533777781402191,20.570248320476335,-54.5
1772057699.776645,18.178489292467763,1.3981923552824882,-6.899931697010325,-0.17350857192303404,-1.3162568346415071,9.72734742590209,0.005461765654537149,-0.0054465315327288715,0.07090400086226964,5.97127735475553,20.570859316095277,-56.5
1772057699.8064039,18.11507158115875,1.4002279305888852,-6.892893530632901,-0.18180958682826667,-1.2774606664034658,9.748305411812952,0.004384646645437996,-0.015265522413449117,0.04145156973486533,5.97127735475553,20.570859316095277,-56.5
1772057699.8330724,18.15105136885045,1.395492028287363,-6.893635466850788,-0.14719251817698295,-1.2515861899753844,9.762252717320587,-0.0054571954179946655,0.0021740423765490655,0.02399827721492203,5.97127735475553,20.570859316095277,-56.5
1772057699.8511236,18.036870828808784,1.3965910567825277,-6.90063665995633,-0.1141479502756024,-1.2142823493163695,9.771534493334308,-0.008720544101089505,-0.00437550617235303,0.05345070834232634,4.845667456228002,21.00678775785705,-56.0
1772057699.8755405,18.100572905126626,1.4084963978806024,-6.905900883760042,-0.09218051773893561,-1.1727315178430398,9.76098585305061,0.0010786424212799802,0.008728161161993644,0.031634092692397225,4.845667456228002,21.00678775785705,-56.0
1772057699.890931,18.100572905126626,1.4084963978806024,-6.905900883760042,-0.09218051773893561,-1.1727315178430398,9.76098585305061,0.0010786424212799802,0.008728161161993644,0.031634092692397225,4.845667456228002,21.00678775785705,-56.0
1772057699.9177656,18.00832158290602,1.4098569673745376,-6.90596800156438,-0.15114915091836922,-1.1485277884825753,9.730550068826606,-0.006548025136721269,0.0021725189643682376,0.038179077387375956,4.845667456228002,21.00678775785705,-56.0
1772057699.9384773,18.07108861544428,1.4205269645227938,-6.903927324402986,-0.19039211757648825,-1.1324204769665587,9.733711176366754,-0.007631237794543731,-0.0032831530414456005,0.037088246604879506,4.846278451846944,20.569288184503712,-56.5
1772057699.9596422,17.96463843908831,1.4279810552372516,-6.903226325477186,-0.2198529819599974,-1.1217059127370475,9.762575751781393,-0.005464812478898804,0.007628190970182075,0.05235987755982989,4.846278451846944,20.569288184503712,-56.5
1772057699.9761386,18.006711324269595,1.4374434010713395,-6.901636478416402,-0.2394588581078041,-1.1145754899318323,9.7817848042814,-0.0065434549001787854,-0.0010999701918115684,0.030543261909900768,4.846278451846944,20.569288184503712,-56.5
1772057700.0239587,18.006711324269595,1.4374434010713395,-6.901636478416402,-0.2394588581078041,-1.1145754899318323,9.7817848042814,-0.0065434549001787854,-0.0010999701918115684,0.030543261909900768,4.846278451846944,20.569288184503712,-56.5
1772057700.09328,17.743906362127884,1.441273463875617,-6.894713518589386,-0.25250634967218255,-1.1098302732070033,9.79456821414098,-0.003275535980541462,0.002177089200910721,0.05126904677733343,5.532817645429568,21.25774765003158,-56.5
1772057700.17393,17.86375877341687,1.4415115490727561,-6.894011131903342,-0.2845723670970209,-1.1301208451780864,9.799730318895167,-0.0021603316669216157,-0.015274662886534084,-0.001090830782496456,5.532817645429568,21.25774765003158,-56.5
1772057700.2039607,17.819831474508238,1.4654696234693723,-6.883332760577776,-0.20552598855903775,-1.1668996036624941,9.806510753651908,0.0011045404283540517,-0.00981594405635859,0.0545415391248228,5.155112173385677,23.194722050065845,-57.25
1772057700.3171782,17.497803230051794,1.5153515022876063,-6.876835307053628,-0.25327476000367466,-1.1915156062063668,9.75750126992299,-0.00217099555218741,-0.00763885485544787,0.05999569303730508,4.468223839449372,22.756262340739884,-56.0625
1772057700.4132838,17.048207283917595,1.5697754769302619,-6.90614340005661,-0.23139382092406957,-1.3048306793681015,9.77840779329031,-0.005452625181452182,-0.0010984467796307407,-0.001090830782496456,4.468223839449372,22.756262340739884,-56.0625
1772057700.4358804,16.743968424289672,1.571233894552106,-6.900491741394633,-0.26700892707057705,-1.3803106695540046,9.705347946659789,0.0021999403836231372,-0.01308690980035757,0.03381575425739013,4.465518001708345,24.69376045130467,-58.0625
1772057700.4608073,16.743968424289672,1.571233894552106,-6.900491741394633,-0.26700892707057705,-1.3803106695540046,9.705347946659789,0.0021999403836231372,-0.01308690980035757,0.03381575425739013,4.465518001708345,24.69376045130467,-58.0625
1772057700.5182426,16.743968424289672,1.571233894552106,-6.900491741394633,-0.26700892707057705,-1.3803106695540046,9.705347946659789,0.0021999403836231372,-0.01308690980035757,0.03381575425739013,4.465518001708345,24.69376045130467,-58.0625
1772057700.583741,16.1398883030535,1.6121185731646877,-6.904956491380852,-0.306646828436046,-1.346973933622603,9.730224704825202,-0.0032785828049031176,0.004358748638363925,0.050178215994836975,4.027582002912904,25.005649150938115,-58.5
1772057700.613176,16.1398883030535,1.6121185731646877,-6.904956491380852,-0.306646828436046,-1.346973933622603,9.730224704825202,-0.0032785828049031176,0.004358748638363925,0.050178215994836975,4.027582002912904,25.005649150938115,-58.5
1772057700.6453989,16.287876862988885,1.6220318268110079,-6.909791012019716,-0.26701978430132606,-1.331348965440888,9.736839761965694,-0.00762514414582042,-0.007646471916352008,0.05126904677733343,4.838422793889121,26.19428269904664,-57.5625
1772057700.6741064,16.379323389190468,1.634499658855173,-6.907564415111111,-0.2406858023242646,-1.2941898560967522,9.697755556402509,-0.0065434549001787854,-0.0010999701918115684,0.044724062082354694,4.838422793889121,26.19428269904664,-57.5625
1772057700.70349,16.463675494290232,1.632581779271733,-6.907052642697425,-0.2231795181041372,-1.2560804501419112,9.671745454199392,0.004369412523629719,-0.004357225226183097,0.03381575425739013,4.837637228093339,26.756782150500932,-56.75
1772057700.7257402,16.463675494290232,1.632581779271733,-6.907052642697425,-0.2231795181041372,-1.2560804501419112,9.671745454199392,0.004369412523629719,-0.004357225226183097,0.03381575425739013,4.837637228093339,26.756782150500932,-56.75
1772057700.7617056,16.519565578103766,1.6428718411421017,-6.905193216116045,-0.20483906462326676,-1.230709722881046,9.69457736222293,0.004354178401821442,0.006551071961082924,0.05126904677733343,4.837637228093339,26.756782150500932,-56.75
1772057700.822298,16.634112206098663,1.634971897333004,-6.8989319083323055,-0.1926196827462218,-1.2238611126341095,9.739877747329345,0.0021862296739956874,-0.0032694423318181507,0.018544123302439753,4.025487160790818,26.505647688149562,-58.0
1772057700.8659518,16.335403071599956,1.65858880371744,-6.897270444377661,-0.15437250129188318,-1.225951611023701,9.790095317823122,0.004361795462725581,0.001096923367449913,0.0272707695624114,4.025487160790818,26.505647688149562,-58.0
1772057700.8923616,16.335403071599956,1.65858880371744,-6.897270444377661,-0.15437250129188318,-1.225951611023701,9.790095317823122,0.004361795462725581,0.001096923367449913,0.0272707695624114,4.025487160790818,26.505647688149562,-58.0
1772057700.9365635,15.910103397302573,1.6606615437459444,-6.89930621615495,-0.13226453772822427,-1.2273474860035154,9.823514550019711,0.0010984467796307407,-0.005452625181452182,0.009817477042468103,4.4608918920220715,28.00625722097995,-57.25
1772057701.0195024,-15.210959845023014,0.22042644585254015,6.940488927067342,-0.1176079947860045,-1.1881351238673328,9.865825345973175,-0.010911344011627674,0.0021664253156449265,0.025089107997418487,4.4608918920220715,28.00625722097995,-57.25
1772057701.1002865,-15.210959845023014,0.22042644585254015,6.940488927067342,-0.10785422918226963,-1.1620397348964895,9.893982708037644,-0.0010755955969183246,-0.010909820599446847,0.05672320068981571,4.458797049899985,29.5062557581914,-58.875
1772057701.180228,14.403870205594554,1.6731780271834964,-6.900634553622775,-0.16826070437958615,-1.1481120865649481,9.926101564782481,-0.0032724891561798065,-4.57023654248322e-06,0.037088246604879506,4.458797049899985,29.5062557581914,-58.875
1772057701.2669451,14.403870205594554,1.6731780271834964,-6.900634553622775,-0.16826070437958615,-1.1481120865649481,9.926101564782481,-0.0032724891561798065,-4.57023654248322e-06,0.037088246604879506,4.458797049899985,29.5062557581914,-58.875
1772057701.331425,13.816659213237067,1.6847019992936016,-6.889081324537025,-0.141558369935019,-1.1387499591035655,9.863848512472048,0.0054571954179946655,-0.0021740423765490655,0.050178215994836975,4.45687677795474,30.881254417301893,-58.0625
1772057701.4070356,13.92369764871434,1.6694515056183201,-6.883175326967403,-0.14716665053161654,-1.159313136998936,9.822419801571614,-0.008700739742738745,-0.018556292515798857,0.003272492347489368,4.45687677795474,30.881254417301893,-58.0625
1772057701.5223193,12.957631104782532,1.7572631510670031,-7.064115354598203,-0.150898898620053,-1.1729977021825573,9.768088563597844,0.00326334868309484,0.006549548548902095,0.018544123302439753,4.454781935832654,32.38125295451334,-57.5625
1772057701.6275868,13.171025412261677,1.7785542662539586,-7.4971222782893445,-0.1533125932218888,-1.2322812541235275,9.70851594969476,-0.05016445635179625,-0.009887544428857495,0.19962203319685143,4.454781935832654,32.38125295451334,-57.5625
1772057701.6917856,13.326080499966725,1.7830251546109956,-7.566317579001017,-0.2519036666575506,-1.2885948158897491,9.66887104061196,0.04792643066365241,0.05024519719738011,0.05345070834232634,6.203209097654446,33.5086958398977,-57.5625
1772057701.8152733,12.47671048443875,1.7598786703455516,-7.173504928708018,-0.2559344783356259,-1.049803425242475,9.487780462230244,-0.031428401198659715,-0.14730619098133527,-0.11999138607461016,5.951114499330452,35.00834523675546,-58.0625
1772057701.9037492,12.47671048443875,1.7598786703455516,-7.173504928708018,-0.2559344783356259,-1.049803425242475,9.487780462230244,-0.031428401198659715,-0.14730619098133527,-0.11999138607461016,5.951114499330452,35.00834523675546,-58.0625
1772057702.0292249,12.280487791491547,1.7602948623443264,-7.097929165319806,-0.4243161954945788,-0.8662429203851317,9.782892752652195,0.03392997719408674,-0.08176500312688949,0.04036073895236887,7.700763652390126,35.26078897543314,-58.0625
1772057702.107236,12.419824237251445,1.78989342837747,-7.029817827469578,-0.5358678086914908,-1.1053571669884974,9.581218392136709,0.01206006339322573,-0.043616431215074976,0.032724923474893676,8.137652230124523,35.698899544405414,-57.25
1772057702.2069018,12.749856663214887,1.820192903844876,-6.988332953598616,-0.4194329797849247,-1.2642187427473979,9.597536384893244,0.009805280171092796,0.008740348459440266,0.0545415391248228,8.137652230124523,35.698899544405414,-57.25
1772057702.4395533,13.567072139513987,1.8548018460852027,-6.906529894679062,-0.291863708210755,-1.302967103101953,9.58163493313024,0.01747460327015722,-0.015247241467279184,0.030543261909900768,10.698054889071994,37.20247677024209,-56.75
1772057702.5962415,14.38420151739068,1.8986454314722048,-6.794792240909598,-0.24754715299880825,-1.2546719901321417,9.618615637662334,0.006569352907252857,-0.017444135026540665,0.044724062082354694,9.197096215887925,37.887881257675254,-55.25
1772057702.7173238,14.38420151739068,1.8986454314722048,-6.794792240909598,-0.24754715299880825,-1.2546719901321417,9.618615637662334,0.006569352907252857,-0.017444135026540665,0.044724062082354694,9.197096215887925,37.887881257675254,-55.25
1772057702.9003854,14.842307744743277,1.9367188499089374,-6.708162568822933,-0.2814004659825824,-1.2378338750425528,9.773179298586637,0.014194497053073275,-0.009797663110188657,0.03381575425739013,9.509072200609786,38.26331731742022,-56.5
1772057703.0981932,15.378170512606086,1.8593823960810494,-6.522556161499869,-0.36432694605392213,-1.2761723732855792,9.87280944157061,0.013076245915091777,0.00983574841470935,0.019634954084936207,9.945960778344185,38.7014278863925,-54.875
1772057703.2432122,15.451452658633238,2.113577068682262,-6.3324276923556155,-0.32208875558740496,-1.3143606522182698,9.838418534908527,0.04570516250949769,0.0786037230599101,0.05345070834232634,9.19552508429636,39.01288016058384,-54.875
1772057703.3248377,15.642648274961838,2.131599273967446,-6.228914431178651,-0.31405036233459294,-1.3398025551805786,9.879088893135581,0.006569352907252857,-0.017444135026540665,0.04363323129985824,9.19552508429636,39.01288016058384,-54.875
1772057703.4318843,15.923494705737248,2.0238896610657346,-6.254693008093796,-0.2665332980825754,-1.104837887706593,9.73370785520609,0.004398357355065446,-0.025082989881988534,0.04799655442984406,10.320523987204945,39.01445129217541,-53.6875
1772057703.5109382,15.923494705737248,2.0238896610657346,-6.254693008093796,-0.2665332980825754,-1.104837887706593,9.73370785520609,0.004398357355065446,-0.025082989881988534,0.04799655442984406,10.320523987204945,39.01445129217541,-53.6875
1772057703.6068509,16.181734533001535,1.9647120517198824,-6.2322154510764545,-0.26709021716406023,-1.1669023965069598,9.739157759634836,-0.007623620733639592,-0.00873730163507861,0.05345070834232634,10.694476200446763,39.76497427131165,-52.875
1772057703.6964455,16.577940610424694,1.5726323526843102,-6.058341864566055,-0.2673393775891967,-1.295178453382605,9.742784610152745,0.017506594925954605,-0.03815466556053782,0.006544984694978736,10.694476200446763,39.76497427131165,-52.875
1772057703.8135858,16.577940610424694,1.5726323526843102,-6.058341864566055,-0.2673393775891967,-1.295178453382605,9.742784610152745,0.017506594925954605,-0.03815466556053782,0.006544984694978736,10.694476200446763,39.76497427131165,-52.875
1772057703.987837,16.48463677701442,1.6113685954864192,-6.067790244131342,-0.2545494168296267,-1.370373056541576,9.816194149530498,-0.014186879992169138,0.004343514516555648,0.05345070834232634,9.942905800249475,40.88892575315919,-52.875
1772057704.1262338,15.679099905301008,1.5954578318665993,-6.068264791937897,-0.17892590845310818,-1.2765987965460892,9.81746724902668,0.005455672005813837,-0.0010832126578224632,0.0545415391248228,9.942905800249475,40.88892575315919,-52.875
1772057704.252869,15.38142797745485,1.6064830545097473,-6.06163534063496,-0.11200019400286582,-1.0445475673948679,9.818878306945482,-0.014179262931264999,-0.0011106340770773626,0.04036073895236887,9.504969801454035,41.200814452792635,-52.875
1772057704.3356411,14.612196830938018,1.5786728087001025,-6.0633195512023,-0.11014346265628591,-0.9942194525867517,9.712506935097965,-0.007644948504171181,0.006534314427093818,0.04363323129985824,8.504447066115882,41.57441752568078,-52.0625
1772057704.454176,14.612196830938018,1.5786728087001025,-6.0633195512023,-0.11014346265628591,-0.9942194525867517,9.712506935097965,-0.007644948504171181,0.006534314427093818,0.04363323129985824,8.504447066115882,41.57441752568078,-52.0625
1772057704.5142806,14.339287809309187,1.5294680037051462,-6.071369358907547,-0.09624316608322923,-0.9995305940794488,9.58455409242526,0.003280106217083945,-0.0054495783570905265,0.02945243112740431,8.128312725663557,42.38639302280645,-51.6875
1772057704.5968487,13.781496527672354,1.5380508569803653,-6.1025699979855395,-0.08364756554515494,-1.0030604277595625,9.49940290495348,-0.02512716883523254,0.027235704488006014,0.05890486225480862,8.128312725663557,42.38639302280645,-51.6875
1772057704.7060559,13.562512973455826,1.534950029655926,-6.118438090987373,-0.07530270732065078,-0.9786486250813164,9.526363533575084,-0.007634284618905387,-0.0011014936039923963,0.04036073895236887,7.005932375407578,40.509823719700584,-51.25
1772057704.7953663,12.652421221575471,1.5559617615253793,-6.123059752013631,-0.11509472401772838,-0.9550050606896195,9.55624572944934,-0.0032785828049031176,0.004358748638363925,0.037088246604879506,7.005408664877057,40.884823354003444,-52.5
1772057704.8530447,12.272484806987109,1.5425906218288992,-6.127390704923018,-0.18392641630525886,-0.981378049022231,9.751199367808232,-0.00763885485544787,0.0021709955521874097,0.04581489286485115,7.004972239434956,41.19732304925583,-49.5625
1772057704.9509015,12.285883504979092,1.5509958617610244,-6.133333448702539,-0.19886196099615716,-0.9944046383633434,9.857841740512782,0.004375506172353031,-0.008720544101089505,0.055632369907319255,7.004972239434956,41.19732304925583,-49.5625
1772057704.9894981,12.285883504979092,1.5509958617610244,-6.133333448702539,-0.19886196099615716,-0.9944046383633434,9.857841740512782,0.004375506172353031,-0.008720544101089505,0.055632369907319255,7.004972239434956,41.19732304925583,-49.5625
1772057705.0453188,12.238592469272445,1.5121354824727724,-6.12368660821865,-0.20880139914698387,-1.003073688053316,9.764900574615652,-0.007634284618905387,-0.0011014936039923963,0.06872233929727672,7.005408664877057,40.884823354003444,-51.6875
1772057705.112302,11.787387929503723,1.5158364331130634,-6.1266284953479735,-0.14184695668102829,-0.9920145251697582,9.703049266931963,0.0021877530861765153,-0.0043602720505447525,0.050178215994836975,7.005408664877057,40.884823354003444,-51.6875
1772057705.2182963,11.371182528949001,1.533993632625444,-6.1140479716029486,-0.09728952315006371,-0.9846547758096945,9.718754811617275,-0.006520603717466369,-0.017462415972710598,0.019634954084936207,6.631543736723659,40.07180043581672,-50.0
1772057705.2933395,11.371182528949001,1.533993632625444,-6.1140479716029486,-0.09728952315006371,-0.9846547758096945,9.718754811617275,-0.006520603717466369,-0.017462415972710598,0.019634954084936207,6.631543736723659,40.07180043581672,-50.0
1772057705.3255837,10.923087283422214,1.4898230863676538,-6.129007619250258,-0.06762303391253748,-0.9897922701599353,9.72920667616292,9.14047308496644e-06,-0.006544978312359613,0.04581489286485115,6.631543736723659,40.07180043581672,-50.0
1772057705.393375,10.818342944819813,1.4779366930360733,-6.138129848206308,-0.06455914240793863,-1.02668565798206,9.732817163555751,-0.003257255034371529,-0.010912867423808504,0.008726646259971648,5.945702823848396,38.88334145788504,-50.375
1772057705.4213138,10.65654619614832,1.468541199121146,-6.132937072866584,-0.06243606706664788,-1.1114497474649938,9.69842367380338,1.675753398910514e-05,-0.011999126905992622,0.03490658503988659,5.945702823848396,38.88334145788504,-50.375
1772057705.4527495,10.65654619614832,1.468541199121146,-6.132937072866584,-0.11454491926639604,-1.167934048601979,9.712331419354143,-0.016365492605260684,0.002158808254740788,0.04908738521234052,5.507068544345594,39.69522966992229,-51.5625
1772057705.4789846,10.479767348748284,1.4825614104931206,-6.161229268970072,-0.11454491926639604,-1.167934048601979,9.712331419354143,-0.016365492605260684,0.002158808254740788,0.04908738521234052,5.507068544345594,39.69522966992229,-51.5625
1772057705.580672,10.339253879492567,1.4890246435518046,-6.162096182128179,-0.149199420041617,-1.2222492622636156,9.788489102804867,-0.006552595373263752,0.005445008120548043,0.05999569303730508,5.507068544345594,39.69522966992229,-51.5625
1772057705.628404,10.212887318815811,1.476449299210056,-6.178118228378247,-0.1722616031913879,-1.2583954302147429,9.839171190404258,-0.01199455666945014,-0.003289246690168911,0.004363323129985824,5.507068544345594,39.69522966992229,-50.375
1772057705.7080731,10.318374035395859,1.4828243169450206,-6.183962230415677,-0.16084836089455876,-1.282412927975558,9.876244665252957,-0.00654650172454044,0.0010816892456416355,0.031634092692397225,5.507068544345594,39.69522966992229,-50.375
1772057705.75821,10.107400942830981,1.4783758498069601,-6.185943569338126,-0.15346787172145485,-1.1445213159635204,9.900916648626916,-1.52341218082774e-06,0.001090829718726602,0.04690572364734761,5.133203616192195,38.88220675173557,-50.0
1772057705.7849662,10.191766229722058,1.481692996590085,-6.170917044343505,-0.10834953412477924,-1.099531446905171,9.917335577958173,1.218729744662192e-05,-0.008726637749812817,0.022907446432425576,5.133203616192195,38.88220675173557,-50.0
1772057705.8459845,10.191766229722058,1.481692996590085,-6.170917044343505,-0.10834953412477924,-1.099531446905171,9.917335577958173,1.218729744662192e-05,-0.008726637749812817,0.022907446432425576,5.133203616192195,38.88220675173557,-50.0
1772057705.8820543,10.191766229722058,1.481692996590085,-6.170917044343505,-0.10834953412477924,-1.099531446905171,9.917335577958173,1.218729744662192e-05,-0.008726637749812817,0.022907446432425576,5.133203616192195,38.88220675173557,-50.0
1772057705.9406111,10.281493611944638,1.508686685280877,-6.181747511655368,-0.07835181438267672,-1.0495205409454544,9.931607303723986,-0.004358748638363925,-0.003278582804903117,0.032724923474893676,6.195178869519783,39.258690232541575,-50.75
1772057705.9861825,10.372804140828709,1.502162036440439,-6.209558907106585,-0.0583886669907935,-1.016238841687688,9.810645621210057,-0.0032587784465523567,-0.009822037705081901,0.06217735460229799,6.195178869519783,39.258690232541575,-50.75
1772057706.0179024,10.372804140828709,1.502162036440439,-6.209558907106585,-0.0583886669907935,-1.016238841687688,9.810645621210057,-0.0032587784465523567,-0.009822037705081901,0.06217735460229799,6.195178869519783,39.258690232541575,-50.75
1772057706.1190908,10.50550945625119,1.5233316664227048,-6.206650629130043,-0.11983084010210725,-0.9794673061558958,9.693289759934874,0.0032770593927222897,-0.003267918919637323,0.0272707695624114,5.133640041634296,38.56970705648319,-50.75
1772057706.1985223,10.633106824786083,1.5093560617764492,-6.207008531476602,-0.13616912193387679,-0.9696892712902195,9.70556974531691,-0.002177089200910721,-0.003275535980541462,0.04254240051736178,5.133640041634296,38.56970705648319,-50.75
1772057706.3137648,10.892177372342672,1.53305642334663,-6.23094018616042,-0.1563396681231435,-1.025756826183013,9.728084979523285,-0.013079292739453432,-0.007654088977256147,0.055632369907319255,5.946662959821019,38.19584212832979,-50.75
1772057706.3848822,11.073576699409353,1.5568222643378098,-6.226985230641582,-0.12357571317566579,-1.0673452104909635,9.742106022094204,0.004369412523629719,-0.004357225226183097,0.044724062082354694,5.944568117698933,39.69584066554123,-52.0
1772057706.4703932,11.263333372579625,1.5671741060570834,-6.224541843787298,-0.10179502542516924,-1.078296273449252,9.724675975641286,-0.004358748638363925,-0.003278582804903117,0.061086523819801536,5.944568117698933,39.69584066554123,-52.0
1772057706.5896888,11.439112826887168,1.5634359943831704,-6.230286469180446,-0.03751278928601165,-1.0903779798589937,9.727618480692966,-0.0152975140692465,0.018522777447820646,0.01090830782496456,7.508637725552422,38.57302388984316,-50.375
1772057706.666466,11.752452120079122,1.621056112252259,-6.278196665127461,-0.004473242698920984,-1.0266660954196833,9.694964008431288,-0.0021907999105381707,0.006541931487997957,0.061086523819801536,6.321662594123881,38.19636583886031,-52.0
1772057706.7538333,11.752452120079122,1.621056112252259,-6.278196665127461,-0.004473242698920984,-1.0266660954196833,9.694964008431288,-0.0021907999105381707,0.006541931487997957,0.061086523819801536,6.321662594123881,38.19636583886031,-52.0
1772057706.8450584,12.155621854907974,1.5834172427577895,-6.306874971684719,-0.07933737545313221,-0.9138383009860165,9.558488528781004,-0.007628190970182075,-0.005464812478898804,0.03381575425739013,6.69570209245412,38.884388878946076,-53.5625
1772057706.9180899,12.155621854907974,1.5834172427577895,-6.306874971684719,-0.07933737545313221,-0.9138383009860165,9.558488528781004,-0.007628190970182075,-0.005464812478898804,0.03381575425739013,6.69570209245412,38.884388878946076,-53.5625
1772057706.990811,12.337652537120444,1.6026694767394989,-6.324525875264484,-0.09926059467906095,-0.8724781513888021,9.609170808397788,-0.015262475589087462,-0.006566306082891201,0.037088246604879506,7.13363809124956,38.572500179312634,-52.0
1772057707.072717,12.548631648488943,1.6213547624939773,-6.321093601953629,-0.16938611808523882,-0.8450328519719525,9.662969969568515,-0.010902203538542708,-0.004378552996714686,0.022907446432425576,7.13363809124956,38.572500179312634,-52.0
1772057707.188253,12.139121306704126,1.631285058375626,-6.302048478981682,-0.2627452391731623,-0.9271869683050187,9.7288787157175,0.005480046600707081,-0.018536488157448096,0.03490658503988659,4.945180088510242,39.256944530773175,-49.5625
1772057707.240003,12.139121306704126,1.631285058375626,-6.302048478981682,-0.2627452391731623,-0.9271869683050187,9.7288787157175,0.005480046600707081,-0.018536488157448096,0.03490658503988659,4.945180088510242,39.256944530773175,-49.5625
1772057707.2974179,11.71067499394087,1.6091479908075486,-6.322126068499497,-0.3582603726642421,-1.0287378497751345,9.772740250030713,2.2851182712416098e-05,-0.01636244578089903,0.011999138607461015,6.321138883593359,38.57136547316317,-51.1875
1772057707.3771656,11.299142101689394,1.2558091950924868,-6.472555771024362,-0.2914716833334559,-1.0429838774995221,9.665312631864053,-0.10429919123584536,-0.3012152499379016,-0.015271630954950384,6.321138883593359,38.57136547316317,-52.0
1772057707.5361297,11.299142101689394,1.2558091950924868,-6.472555771024362,-0.2914716833334559,-1.0429838774995221,9.665312631864053,-0.10429919123584536,-0.3012152499379016,-0.015271630954950384,6.321138883593359,38.57136547316317,-52.0
1772057707.6600006,10.850291437325447,1.2244533321455338,-6.562622766564364,-0.11728958222168234,-0.929880544713216,9.616699347161628,0.04240220510970132,0.10041574719789967,0.0916297857297023,5.633639554038112,38.57040533719055,-51.5625
1772057707.7932582,10.774912835651843,1.4513793984417727,-6.478661676203222,-0.18470128641942807,-0.9033088258276918,9.62449367582141,0.07727371762879355,0.125553579918398,0.07744898555724837,6.007679052368351,39.25842837727632,-51.5625
1772057707.869575,10.774912835651843,1.4513793984417727,-6.478661676203222,-0.18470128641942807,-0.9033088258276918,9.62449367582141,0.07727371762879355,0.125553579918398,0.07744898555724837,6.007679052368351,39.25842837727632,-51.5625
1772057707.9432604,10.90164286829666,1.1835230508943644,-6.5449053120713785,-0.22944155952255277,-0.9725984633099157,9.62968071447614,-0.05420024160782468,-0.24442202760380025,0.03490658503988659,6.007679052368351,39.25842837727632,-51.5625
1772057708.0058975,10.815053566858124,0.5991303769127964,-6.8181208641636495,-0.2825800824141062,-1.0555388375130497,9.633132630757844,-0.15875384267786824,-0.3634687145143593,0.015271630954950384,4.947274930632329,37.75694599356172,-53.1875
1772057708.0490403,10.703520537002458,0.9934336712056088,-6.064279731968932,-0.267747862508607,-1.1240450890122402,9.692296741507315,0.1243637284079176,-0.00637130932374525,0.020725784867432664,4.947274930632329,37.75694599356172,-53.1875
1772057708.1472332,10.703520537002458,0.9934336712056088,-6.064279731968932,-0.267747862508607,-1.1240450890122402,9.692296741507315,0.1243637284079176,-0.00637130932374525,0.020725784867432664,4.947274930632329,37.75694599356172,-53.1875
1772057708.3149877,9.968806675628322,1.323816665834528,-4.175993520217127,-0.25787718584824987,-1.1696352341199803,9.731669796304667,0.31075850321389203,0.09206386884457048,0.007635815477475192,3.821665032104801,38.192874435323496,-53.1875
1772057708.4166582,8.751206908303393,-0.22557738913347927,-6.283774789037184,-0.223483748750239,-1.2468938853224392,9.534461438198651,-0.23013917264423897,-0.018865545188506888,0.009817477042468103,5.201289800901568,34.882297937593464,-51.5625
1772057708.5188735,8.114595729218356,-0.3767724172277195,-7.330459762245022,-0.19827656336637042,-1.2781085584295353,9.623287053381295,-0.17994729487318778,-0.02861293569672823,-0.030543261909900768,1.5107384188287167,37.06464598414336,-52.375
1772057708.658309,7.889168797383657,-0.5639573846076659,-6.751242189253802,-0.07111288438478149,-1.2987274101115953,9.254225209501328,0.23787247905489814,-0.050936892924729846,0.030543261909900768,1.5107384188287167,37.06464598414336,-52.375
1772057708.7749717,7.988603461524896,-0.46353175967909477,-3.84660976914425,0.10256245154076256,-0.8233255251994498,9.380009903438895,0.06641416963131402,0.09063179479733846,-0.004363323129985824,3.011697092012787,36.3792414967102,-54.0
1772057709.0653002,8.1069854696917,0.7609387929088146,-6.5341866884965984,0.10606107641333466,-0.7378197787991618,9.574998002331082,-0.2040034383480445,0.012805078546904438,-0.015271630954950384,5.199718669310004,36.00729684050205,-52.375
1772057709.1560783,8.34731579323371,0.6055089907166633,-3.3297305610102033,0.10375018768125141,-1.0899443929178108,9.427361091479968,0.4799924976589598,-0.01896463357751463,0.1538071403320003,6.322273589742823,37.758866265506974,-53.5625
1772057709.320785,8.484161021422308,0.5239449493612807,-0.8311465650920782,0.128684458197296,-0.6707557296533536,9.77091526390118,0.22035979048022022,-0.008418908489285613,0.007635815477475192,6.3283835459322395,33.38387053197358,-52.375
1772057709.347504,8.484161021422308,0.5239449493612807,-0.8311465650920782,0.128684458197296,-0.6707557296533536,9.77091526390118,0.22035979048022022,-0.008418908489285613,0.007635815477475192,6.3283835459322395,33.38387053197358,-52.375
1772057709.455954,8.529026995966664,0.47685554035119915,-0.189204424089008,0.06586799256242938,-0.2602761782359428,9.868414364665322,0.1931103752825868,-0.023728609855978734,-0.025089107997418487,6.704343316207725,32.696894912948856,-52.375
1772057709.5560539,8.549668044678036,0.5427569206804097,-0.22631825977640946,0.057186817113746125,-0.15312155185369752,9.868944777397479,-0.08508471806067495,-0.00011882615010456371,-0.013089969389957472,5.206439621118363,31.194801533615323,-52.75
1772057709.6176167,8.420191097193698,0.5957697999418495,-0.8612131249882764,0.06754219655749223,0.03252771998890687,9.802677713712608,-0.16252601102935957,-0.005681137008576343,-0.020725784867432664,4.955916154385934,31.569452027564502,-52.0
1772057709.719085,8.420191097193698,0.5957697999418495,-0.8612131249882764,0.06754219655749223,0.03252771998890687,9.802677713712608,-0.16252601102935957,-0.005681137008576343,-0.020725784867432664,4.955916154385934,31.569452027564502,-52.0
1772057709.7543342,8.495552920851361,0.6651004364395328,-2.651378094886182,0.0448644875423479,0.08185878630763253,9.785056430027122,-0.3676598878128322,0.03548399081303892,-0.02399827721492203,5.641844352349616,32.69541106644571,-52.0
1772057709.8673682,8.792488702666247,0.7765497633627025,-4.845602941111632,0.029889516867837324,0.031060348748826978,9.766639439162429,-0.3512669737883166,0.013690247621219294,0.018544123302439753,7.139311621996876,34.51000414103163,-53.5625
1772057709.993588,9.084733048700851,0.8693802540574977,-6.3052113040499815,-0.050094525140716974,-0.16675386253794217,9.77110869600984,-0.42323279039283657,-0.0071360622385207755,0.08726646259971647,7.139311621996876,34.51000414103163,-53.5625
1772057710.0639913,7.991131029081681,0.562036538545247,-7.608873505433654,-0.10302869741899906,-0.5091388424668536,9.84098517066331,-0.20711596922523742,-0.10173661215593126,-0.32179508083645453,6.008726473429394,38.50842910867059,-52.375
1772057710.1444147,6.013835002746866,1.0169561912066505,-7.959340057685314,-0.09811449641444316,-0.7369361620714531,9.954389418120213,-0.013489090616096093,0.2857791053601998,-0.12326387842209953,6.008726473429394,38.50842910867059,-52.375
1772057710.2200408,6.024952632834997,3.417299739768112,-6.622898829268569,-0.09505904662229898,-0.7346577451266896,10.029858677994334,0.29929873081716635,0.4869289929017921,0.12762720155208535,7.5083758702871615,38.76052370699459,-50.375
1772057710.3469062,5.727569914036312,4.443003232208656,-5.487356291795025,-0.14654741404030924,-0.7332162305645485,9.979729276174108,0.2682572763124369,0.06255205336389995,-0.16471544815696484,7.5083758702871615,38.76052370699459,-50.375
1772057710.475109,4.2037619812302225,2.4949458665340307,-4.888964537014401,-0.32451186091934814,-0.8328110532013262,9.859395814854555,0.040912174802343916,-0.39482399192833934,-0.32834006553143325,7.51143084838187,36.57302584022789,-52.375
1772057710.543331,4.02219053432212,1.6715473859464,-4.808177525008807,-0.4429452123242179,-0.8990902951190356,9.685652112754289,0.04188570178314678,-0.3108285801742101,-0.2694352032766246,7.51143084838187,36.57302584022789,-52.375
1772057710.6147256,3.6814578766305264,0.9127705234738097,-4.969254376573606,-0.3779122782458059,-0.9496877259986601,9.432878039850788,-0.04132965633714466,-0.08732426716099961,-0.21162117180431245,5.201027945636307,35.0697977547449,-54.875
1772057710.6952643,3.617011327948505,0.9546365401575184,-5.949388699228808,-0.30455096934506054,-0.9665921639273078,9.264659718004918,-0.24547629543018698,0.02801880494620541,-0.03490658503988659,5.201027945636307,35.0697977547449,-54.875
1772057710.7251205,3.617011327948505,0.9546365401575184,-5.949388699228808,-0.30455096934506054,-0.9665921639273078,9.264659718004918,-0.24547629543018698,0.02801880494620541,-0.03490658503988659,5.201027945636307,35.0697977547449,-54.875
1772057710.815528,5.23695061140311,1.9910429458866878,-5.605416542014649,-0.31686749659736757,-0.9854591947252408,9.246504373059787,0.23544402684415083,0.12577447468461803,0.136353847812057,4.948322351693371,37.006946724956,-52.375
1772057710.9674997,6.239987962550581,1.7141977443780407,-5.527973256959172,-0.3543190235561144,-0.9370020763046237,9.46176084858844,-0.05768296164495872,-0.09389209665607165,0.11017390903214205,5.200416950017366,35.50729732809823,-53.1875
1772057711.155532,7.1617619063074045,1.2274725535471722,-5.434330651429066,-0.3792706263098224,-0.8846837546260317,9.605011628480373,0.0066013445630502396,-0.04035155911979931,0.05672320068981571,6.323932006422807,36.571367423547905,-53.1875
1772057711.3220835,9.204793128398851,1.5905635062429508,-3.831400724568644,-0.32237201484535505,-0.7862066591375836,9.700343422282392,0.1875709156068274,0.03735023733180684,0.28907015736156083,6.323932006422807,36.571367423547905,-53.1875
1772057711.385609,9.204793128398851,1.5905635062429508,-3.831400724568644,-0.32237201484535505,-0.7862066591375836,9.700343422282392,0.1875709156068274,0.03735023733180684,0.28907015736156083,6.323932006422807,36.571367423547905,-53.1875
1772057711.647937,9.572319474539263,-0.7013320490092599,-5.68210324889174,-0.08054871654155131,-0.688477191217129,9.589156857774517,0.008763199642152683,-0.02616772595199183,-0.11017390903214205,3.82489458037635,35.88037669045585,-52.75
1772057711.7627878,8.828549337557867,0.7978074699890167,-6.473344127894545,-0.009697412428331715,-0.7591729085269294,9.589438898267456,-0.06049226690091296,0.35552670063492675,-0.039269908169872414,3.449894946073488,35.87985297992533,-52.375
1772057711.8797622,8.828549337557867,0.7978074699890167,-6.473344127894545,-0.009697412428331715,-0.7591729085269294,9.589438898267456,-0.06049226690091296,0.35552670063492675,-0.039269908169872414,3.449894946073488,35.87985297992533,-52.375
1772057712.042144,8.591636389241621,0.5143036743414641,-7.373399774714759,-0.11940920883619816,-0.9247653908391393,9.589751501855927,-0.009878403955772526,0.04361947803943663,-0.004363323129985824,4.5114337739589745,36.56883615598372,-51.5625
1772057712.273883,8.497350658332948,0.43995008549310527,-7.020116023110556,-0.17927683609113373,-1.003593766557581,9.606560185797623,0.005419110113473972,0.025096700591615985,0.0272707695624114,4.5114337739589745,36.56883615598372,-52.0
1772057712.3600643,8.75173355830311,0.4056142183422854,-6.362366528520755,-0.19220304112257505,-1.1664043754873779,9.617746177195519,0.11015399723303604,0.014334650973709428,-0.0272707695624114,4.948322351693371,37.006946724956,-52.0
1772057712.543934,8.904708492438106,0.44079294582366507,-5.889429656884162,-0.18095420323978006,-1.1175048901688354,9.625190329515107,0.03381115104398218,0.003319714933785466,0.013089969389957472,5.636869102309661,36.2579075923229,-51.1875
1772057712.6083927,9.192128782922923,0.44842062501780466,-4.919296116588543,-0.17356633201923866,-1.0147155515833561,9.717117234117467,0.11237221856282913,-0.011842215451367365,0.04145156973486533,5.636869102309661,36.2579075923229,-51.1875
1772057712.7075458,9.347368359201353,0.4449681131883946,-3.9292797134843522,-0.13866994489950593,-0.8559504220812386,9.778293562239528,0.17129378090805475,-0.023759078099595286,-0.001090830782496456,5.639487654962269,34.38290942080859,-53.5625
1772057712.9023356,9.333647039416356,0.44318382178587257,-3.7398928145725856,-0.10015543065402618,-0.5629847788514055,9.781387655247952,0.0185364881574481,0.005480046600707081,0.003272492347489368,4.9514646148765005,34.75694891913883,-53.1875
1772057712.9736373,9.340708381245726,0.4464326688093391,-3.690510071317643,-0.09984179212215669,-0.562032870843695,9.76754302223711,0.019634934937078834,2.742141925489932e-05,0.007635815477475192,4.9514646148765005,34.75694891913883,-53.1875
1772057713.000178,9.340708381245726,0.4464326688093391,-3.690510071317643,-0.09984179212215669,-0.562032870843695,9.76754302223711,0.019634934937078834,2.742141925489932e-05,0.007635815477475192,4.9514646148765005,34.75694891913883,-53.1875
1772057713.098184,9.341539326548425,0.4502338578755746,-3.3042243522374397,-0.07614256360341153,-0.6148884202435757,9.721533344842566,0.1309026130715539,-0.0019988499757538753,0.008726646259971648,4.51352861608106,35.06883761877227,-51.5625
1772057713.150029,9.575996606415869,0.38745173438306124,-2.21373632646688,-0.07372806727299154,-0.666807426775736,9.727710647278782,0.22694437750928137,-0.0367713407030923,0.04363323129985824,4.51352861608106,35.06883761877227,-51.5625
1772057713.2130873,9.575996606415869,0.38745173438306124,-2.21373632646688,-0.07372806727299154,-0.666807426775736,9.727710647278782,0.22694437750928137,-0.0367713407030923,0.04363323129985824,4.51352861608106,35.06883761877227,-51.5625
1772057713.2942991,9.543251155154799,0.34824029526611955,-1.5784125656449273,-0.07212124693678831,-0.7013589456495841,9.75523735499633,0.1505695396644301,-0.02487885264975762,-0.02399827721492203,5.202511792139451,34.007298790886786,-52.375
1772057713.45481,9.249005363227079,0.35499500035106685,-1.2766849224543173,-0.08099807711385751,-0.2939693677193999,9.819174449768376,0.10255627450647052,-0.012946755879721418,-0.04145156973486533,6.329081826639602,32.88387101956977,-53.5625
1772057713.5231955,9.088838214966563,0.3307083995193125,-0.7246432203519886,-0.0771929399714727,-0.2859839599620078,9.775964153347703,0.2312939856745603,-0.02694777958582957,-0.044724062082354694,6.329081826639602,32.88387101956977,-53.5625
1772057713.5939658,8.993272617168719,0.28571483977740353,0.20467213591514738,-0.0746606637093826,-0.28066976030231283,9.743863072063064,0.3076353084514334,-0.014842013827179005,-0.018544123302439753,5.6421062076148765,32.50791124929428,-52.75
1772057713.6529906,9.016952016149075,0.23118033624199988,1.3510372286195504,-0.04969985264614863,-0.17674726485895773,9.655597926914323,0.44070739366299383,-0.00811117922875841,0.013089969389957472,5.6421062076148765,32.50791124929428,-52.75
1772057713.703302,9.346493839455405,0.16866918159266522,3.6351346640904953,-0.023086087956088533,-0.08415823095358488,9.596858458804112,0.5105372531954854,-0.020012807755178056,0.09926560120717749,5.957311740608289,30.570849564171596,-52.75
1772057713.7910855,9.71244040818912,0.192383046575953,5.134645220777236,-0.005673910702141329,0.19154567731544908,9.614634897964049,0.4373572104855918,0.04751656618975581,0.09708393964218458,5.957311740608289,30.570849564171596,-52.75
1772057713.8966837,9.872472417032125,0.2669726631400159,5.493187944302487,-0.10377713509679025,0.7878215847691109,9.868330006540742,-0.16363664510643694,0.008498125922688655,0.008726646259971648,5.150486063699404,26.507218819741126,-52.75
1772057713.96741,9.872472417032125,0.2669726631400159,5.493187944302487,-0.10377713509679025,0.7878215847691109,9.868330006540742,-0.16363664510643694,0.008498125922688655,0.008726646259971648,5.150486063699404,26.507218819741126,-52.75
1772057714.1523747,9.871681257115306,0.42810129374557787,0.49295598386521966,-0.04694376827380253,1.0530856118162146,9.958400339908101,-0.977439794229726,0.03899572227886262,-0.002181661564992912,5.212986002749881,26.507306104829546,-53.1875
1772057714.293637,9.989837778986722,0.8334780172409555,-10.156420430580807,-0.061865082983852404,1.072081703457477,9.972315890907494,-1.119243087427642,0.03552518953917521,0.031634092692397225,6.010123034844118,37.50843008386296,-51.5625
1772057714.3730485,10.846596847458509,0.9747563288544998,-12.692484811332843,-0.07034683852048483,0.047739772234976975,9.75410893855298,-0.20939360363008278,-0.03301738670051698,0.2279836335417593,6.010123034844118,37.50843008386296,-51.5625
1772057714.4239025,12.246078103560468,0.9477262090281878,-11.376176011213072,-0.0790561612915852,-0.8346595187099268,9.381427053194706,0.7037070415531245,-0.08628377664149427,0.3534291735288517,5.1297122126553845,41.38220431375465,-51.0625
1772057714.6416786,14.602345357070718,0.8034521909858033,-2.873362287871169,-0.08485211830624244,-1.4218863897878187,9.133411421618215,1.0756342732734707,-0.053039401526033945,0.14180800172453928,5.203210072846813,33.50729927848297,-52.25
1772057714.7894874,14.19734876779855,0.7217071994019932,-2.469220615033524,-0.08935862285185006,-1.347709238854507,9.369773194198523,0.05561708153324843,0.010985991208488234,-0.06326818538479445,5.203210072846813,33.50729927848297,-52.25
1772057714.908782,14.909375993778927,0.6650069401621871,0.41803785640034474,-0.0001730376631809189,-0.885386502490005,9.64846186235377,0.2628945324496536,-0.002905346820600321,0.07417649320975901,5.516844474248662,32.69523649626887,-52.25
1772057715.0531173,15.233231672067802,0.6581550985278525,1.3646508433942093,-0.013528289990226143,-0.5658177544912268,9.669047056822475,0.20726983385550102,-0.008437189435455546,0.032724923474893676,5.20897088868255,29.382303301151488,-53.0625
1772057715.1293728,14.797888658240009,0.6449838296495924,2.488346336722371,-0.06255736256823474,-0.3532043823621203,9.682746273789707,0.23235739397403204,-0.007311321236569906,0.06872233929727672,5.20897088868255,29.382303301151488,-53.0625
1772057715.2007654,14.173060724152814,0.6884280739249722,2.7562541877720053,-0.05514246606867486,-0.14140922106089446,9.772145630626785,-0.02292418162724775,0.011967135250195238,0.039269908169872414,5.648041593627453,28.257915393861843,-53.0625
1772057715.338633,14.173060724152814,0.6884280739249722,2.7562541877720053,-0.05514246606867486,-0.14140922106089446,9.772145630626785,-0.02292418162724775,0.011967135250195238,0.039269908169872414,5.648041593627453,28.257915393861843,-53.0625
1772057715.401006,13.485313295249428,0.7636590950376511,2.012455855164268,-0.09059216262513857,0.17342767218082084,9.831639903945609,-0.19202868603694512,0.030275111580519175,0.011999138607461015,5.647605168185352,28.57041508911423,-53.0625
1772057715.468071,12.915488239592667,0.7769467216848885,1.2276403148199966,-0.013830286328648347,0.38308825729279516,9.841126672878833,-0.09162207931213043,-0.00558211521682254,0.017453292519943295,5.647605168185352,28.57041508911423,-53.0625
1772057715.6461258,12.723998760844504,0.8341942099767231,0.09242160097759122,-0.029498791117488547,0.4154781312977087,9.820679117971187,-0.15053754800863273,0.0019714285564989757,0.020725784867432664,6.708096575009795,30.009397533778344,-53.0625
1772057715.8215048,12.723998760844504,0.8341942099767231,0.09242160097759122,-0.029498791117488547,0.4154781312977087,9.820679117971187,-0.15053754800863273,0.0019714285564989757,0.020725784867432664,6.708096575009795,30.009397533778344,-53.0625
1772057715.8631883,12.514923095200677,0.8405887993768225,-0.6119901202006359,0.027018207763490155,0.40702068770141864,9.793691051765025,-0.10363491692775051,0.004218594717727773,0.1090830782496456,4.147606630973905,28.568320246992144,-55.0625
1772057715.9984705,12.44251497730451,-2.5292085825520303,-1.1395089566267715,0.09808072363445679,0.4014390700033067,9.775730795181277,0.06029574672958618,-0.2148096669191951,-0.09926560120717749,4.14245681075711,32.25581665097029,-53.5
1772057716.0834749,10.356524341265079,-0.7848774102541496,-0.3304062035894114,0.1487171425714614,0.3977292374299067,9.73367243968813,0.10418493532228328,0.38302747884239674,-0.32834006553143325,3.4545210557597614,32.56735621025005,-53.0625
1772057716.1306853,7.894335576900127,3.32689177071423,-0.2566341730596112,0.17912139347630593,0.35845952074280407,9.705683073930055,0.008449443330156107,0.979578798126116,-0.6217735460229799,3.4545210557597614,32.56735621025005,-53.0625
1772057716.2198932,5.753217316794046,6.935477638047142,-0.5398767216023506,0.09567073597660723,0.32214581635134987,9.68705646367976,-0.03834654889806819,0.9009735516540252,-0.5901394533305827,8.830999660603927,31.51236376399608,-53.5
1772057716.316333,3.394582306338839,9.404249000280178,-1.7774908613573062,-0.23072509536629968,0.2306988788566459,9.574307311411475,-0.26997118161312206,0.3835957781830994,-0.44505895925855404,8.830999660603927,31.51236376399608,-53.5
1772057716.425309,1.903391714162015,9.229679462361366,-4.81575735491528,-0.5883950565112224,0.14288488645619785,9.49927401006749,-0.5605432746804756,-0.10332102742124605,-0.3392483733563978,12.95241694931018,34.08062208090137,-52.75
1772057716.4923267,0.7213270524383798,8.748797941621133,-5.382210229444286,-0.8497193879857943,0.0007852427529010903,9.506207085224393,-0.01300007530605039,-0.06437723435103945,-0.36324665057131983,12.95241694931018,34.08062208090137,-52.75
1772057716.5287967,-0.17842989197751222,9.691673438689032,-6.110572730250388,-1.0234643035102227,-0.21085927835633372,9.510820969293787,-0.18373165052212576,0.33790127955886756,-0.17889624832941878,11.702156313035378,34.2663761962844,-54.0
1772057716.6041381,-0.715338439971971,12.562402814117313,-7.918369216581717,-1.389519586891228,-0.6765322361593186,9.487130563942952,-0.48209334965357514,0.7421832136810709,-0.03381575425739013,11.702156313035378,34.2663761962844,-54.0
1772057716.700612,-1.4951047625247325,14.997334883209863,-9.098362715563844,-1.653130536391856,-1.0332919358257404,9.384391959430834,-0.31082546675259454,0.7369682407998278,-0.14508049407202864,16.323660399233866,36.77283285484658,-53.1875
1772057716.7969186,-3.098942409945495,18.34380524234235,-12.534016295483218,-2.1129602995537264,-1.2242771030388475,9.292604783842195,-0.6259884209702752,0.6743506807121523,-0.17889624832941878,16.323660399233866,36.77283285484658,-53.1875
1772057716.8555567,-4.120243654069869,17.23096817421443,-14.05965124951014,-2.6290142730611503,-1.6388056332012089,9.164110269718776,-0.016124793480689903,-0.17019228730406233,-0.18544123302439752,20.31841939315918,40.528415443534094,-50.375
1772057716.935407,-5.370375890420907,17.500249413889616,-13.76711986797589,-2.6014190424017856,-1.9247301168440671,9.219602237607553,0.1677943033369316,0.13876997975412594,-0.1810779098944117,19.129960415227494,41.21425635640936,-50.375
1772057717.0229526,-5.854745836068082,18.257808024304698,-13.648980692004448,-2.583185530967177,-2.0213466302572525,9.102656383814946,0.0008943095473998236,0.14071855712791248,0.06326818538479445,19.129960415227494,41.21425635640936,-50.375
1772057717.1391575,-4.483839552496099,17.715410536480118,-12.513430713992875,-2.952963011820513,-2.12897755705179,9.035369550097494,0.24802966743976215,-0.29417820949113466,0.18435040224190105,18.693770118200455,40.27614627503326,-50.375
1772057717.3002877,-2.2492602471232477,15.693991088530293,-10.290518278204411,-3.0178499656312887,-2.1508611024680073,9.07371471609591,0.38472767343345443,-0.5405152994007432,0.2781618495365963,19.445253233309327,39.2146947322362,-51.1875
1772057717.3735354,0.7383623661823491,12.482532923164928,-7.638052821733128,-2.984276208821774,-2.03485768008421,9.065781878651093,0.3783076149199227,-0.6299724768094095,0.33815754257390135,17.19778669505634,37.39905423658923,-51.5625
1772057717.4228623,2.5353022856724605,10.939195789591995,-6.247704651319092,-2.828189642402,-1.9139854223858976,9.060502663947167,0.30608434165684284,-0.4664485642043539,0.38724492778624187,17.19778669505634,37.39905423658923,-51.5625
1772057717.5963917,5.7363412785299115,9.77045675809605,-4.620123573388787,-2.292586638062137,-1.3159520387254937,9.158349834233267,0.022907424093258643,3.199165579738254e-05,0.2301652951067522,13.013345756769091,35.20570826889838,-52.375
1772057717.6731224,6.595446413398617,8.61478854325537,-4.4066668316096544,-2.0639682865452396,-1.080555133065138,9.225804067262185,-0.049350954247234236,-0.592390614228863,0.20289452554434081,11.951545073618345,34.70422490999142,-52.375
1772057717.7710457,7.374174089487352,6.269378454602998,-4.2406864403337226,-1.7714090229332278,-0.9400190673308388,9.228141724686395,-0.2947267044734866,-0.6363665707186132,0.12871803233458182,11.451109135772427,35.01602632453644,-52.5
1772057717.855662,7.658195607433692,4.893382774381869,-4.798973004091947,-1.7714090229332278,-0.9400190673308388,9.228141724686395,-0.2947267044734866,-0.6363665707186132,0.12871803233458182,11.451109135772427,35.01602632453644,-52.5
1772057717.9424634,7.541041606195797,3.0408425162580963,-6.0450548547555325,-1.4824402458999673,-1.211391287024644,9.332461801463992,-0.22739232728769865,-0.42356032401171456,-0.08072147790473774,11.451109135772427,35.01602632453644,-52.5
1772057717.991235,7.541041606195797,3.0408425162580963,-6.0450548547555325,-1.4824402458999673,-1.211391287024644,9.332461801463992,-0.22739232728769865,-0.42356032401171456,-0.08072147790473774,11.451109135772427,35.01602632453644,-52.5
1772057718.059413,7.536051962946229,0.9886464290363318,-7.187935410135407,-1.2466483429895838,-1.3919257363033504,9.599247237959714,0.2909712270587304,0.20111941929797578,0.008726646259971648,4.32262468048124,37.50607338647561,-51.25
1772057718.1295311,7.511912630111719,1.032279175895721,-7.234275396670334,-1.07307599815398,-1.4618694106488195,9.77678996575902,0.015410246570627752,-0.0992441766335892,0.08072147790473774,5.448060008831927,37.1951448228148,-52.0625
1772057718.2050908,7.471893376105229,1.118422845348654,-7.194097783752233,-0.8676680624302927,-1.2072302498800782,9.978570460510223,0.006541931487997957,0.0021907999105381703,0.002181661564992912,5.448060008831927,37.1951448228148,-52.0625
1772057718.2689676,7.471893376105229,1.118422845348654,-7.194097783752233,-0.8676680624302927,-1.2072302498800782,9.978570460510223,0.006541931487997957,0.0021907999105381703,0.002181661564992912,5.448060008831927,37.1951448228148,-52.0625
1772057718.35493,8.151106661708173,1.0973604293177308,-6.489155595417409,-0.6994392621681571,-1.4030889867311742,10.081792717936825,0.20508665100586698,-0.0073494065410906,0.1090830782496456,4.323061105923341,37.19357369122323,-52.5
1772057718.4465332,8.39121640859077,1.0553106630303768,-5.4376559398522035,-0.5483679488398152,-1.455693755937048,9.95407878888285,0.2683227830362125,0.01564637545865605,0.06872233929727672,4.700155582348288,35.694098864542305,-51.25
1772057718.512731,9.017069131345833,0.920222839416384,-1.4505493812943349,-0.3809341801470474,-1.487263100685822,9.762043021121274,0.828151510806626,-0.15046906105774943,0.12871803233458182,5.828820458970525,33.07067255601383,-52.0625
1772057718.5580237,9.017069131345833,0.920222839416384,-1.4505493812943349,-0.3809341801470474,-1.487263100685822,9.762043021121274,0.828151510806626,-0.15046906105774943,0.12871803233458182,5.828820458970525,33.07067255601383,-52.0625
1772057718.611167,9.310872930563814,0.8240258559744038,1.2664285062479979,-0.2698078632918144,-1.2941852064711565,9.63424536285603,1.0069089541693335,-0.050953717055972896,0.2007128639793479,5.828820458970525,33.07067255601383,-52.0625
1772057718.707748,9.863200791691488,0.8137907083158787,4.113862827478317,-0.1962749896414083,-0.8646342646254185,9.652895911800794,0.4188588076326645,0.014765776620883679,0.07417649320975901,5.461589197537066,27.50765426999086,-53.25
1772057718.7694342,9.923066777377262,0.8880127725185744,3.5519163004013814,-0.1511145842506065,-0.27102760592178154,9.762315883295514,-0.23675879815345913,0.034575970556011644,-0.002181661564992912,5.461589197537066,27.50765426999086,-53.25
1772057718.8753343,10.032811351555905,0.9866337715820616,1.6516181774158953,-0.12775105582819474,0.12400165111675078,9.83513365202408,-0.3327243919821452,0.014806975347019968,0.01090830782496456,4.710804363135559,28.06910630038411,-53.0
1772057718.915659,9.85143033125364,1.0507264205944964,0.2723326801302849,-0.14203790872909436,0.19283087420337583,9.763169042221667,-0.19200278802987106,0.01173100636216694,-0.09490227807719166,4.710804363135559,28.06910630038411,-53.0
1772057719.0771527,9.470158145263163,1.078899704289799,-0.7465284233379358,-0.151386813506134,0.12490226615819695,9.715277398295527,-0.19527527718605087,0.011726436125624457,0.015271630954950384,4.334233597241133,29.193581492762174,-53.75
1772057719.2586,9.429591420882408,1.0963164444185516,-1.3911769872354598,-0.1572212800409688,0.02958372125749274,9.65774374520697,0.13418576611299948,-0.009630087770297606,0.039269908169872414,5.143154116272103,31.757213699981193,-53.0
1772057719.3458622,9.551363843347735,1.0827949142046494,-1.1245314675133011,-0.11128184924936728,-0.007082574844371071,9.64511804080998,0.05454453276069175,-0.002105488828411817,0.06763150851478027,5.143154116272103,31.757213699981193,-53.0
1772057719.4645078,9.714141408299902,1.055708883894738,-0.9498719603934284,-0.08070967123462323,-0.03148358531079651,9.69692778630389,-0.0010755955969183246,-0.010909820599446847,0.017453292519943295,5.832748287949436,30.25817529874237,-59.6875
1772057719.5228264,9.707497835194513,1.0463422413468395,-0.9226471508169828,-0.0804348789505683,-0.04775021512268599,9.771547933665142,0.009803756758911968,0.009831178178166868,0.022907446432425576,5.832748287949436,30.25817529874237,-59.6875
1772057719.5723724,9.722546511395285,1.0434288343275149,-0.8034330986593601,-0.09356236672685284,-0.10877078884597045,9.781065467684558,0.038192750865058515,-0.009764148042210447,0.038179077387375956,4.7077493850408505,30.256604167150805,-53.75
1772057719.7068112,9.877670041188736,1.0391481882892968,-0.7393077934349229,-0.08901623415026137,-0.07911333504955943,9.730532381232228,0.022931798688151886,-0.01742128384382825,0.022907446432425576,5.832137292330494,30.695674872095708,-52.5
1772057719.7641013,9.877670041188736,1.0391481882892968,-0.7393077934349229,-0.08901623415026137,-0.07911333504955943,9.730532381232228,0.022931798688151886,-0.01742128384382825,0.022907446432425576,5.832137292330494,30.695674872095708,-52.5
1772057719.8830686,10.181271042159956,-0.7717574321411012,-2.153759226230504,-0.10627798767075759,-0.03513071552130255,9.671178205022267,-0.18824585380018802,-0.33514827395635,0.09926560120717749,5.45600295187817,31.507650369221388,-51.6875
1772057719.968366,10.923267824225166,-2.866858005089751,-3.343588760871745,-0.11080738343308269,-0.06692156837837726,9.587156289597921,-0.3384116892366988,-0.599339296769142,0.21598449493429828,3.6431555790606556,31.75511885785911,-51.6875
1772057720.053248,11.671971432670075,-5.764345499737389,-5.1479719747836805,-0.06693406763629586,-0.12815392401483144,9.464338409322925,-0.6617452357581903,-1.0601218914894739,0.22252947962927702,3.6431555790606556,31.75511885785911,-51.6875
1772057720.132923,13.903113154334706,-14.110668637465164,-9.952977337992285,0.10275768862747876,-0.16870716321524884,9.329082694648424,-0.6011021510513753,-1.5236407342783342,0.32615840396644036,-4.051057875956374,36.55687809887014,-49.75
1772057720.196679,13.76270572245658,-14.816896443722575,-8.16920543230267,1.3070365793353311,-0.7996365602895968,9.239071527437876,0.7187577628490769,0.07190786034439461,0.020725784867432664,-7.7412601176755444,38.48922638921814,-47.75
1772057720.2484057,13.579826738621023,-12.188831003046667,-5.797678392872266,2.10847072842474,-1.2195130260994087,9.212621218223068,0.8317608072492766,1.1705333453810698,0.07090400086226964,-7.7412601176755444,38.48922638921814,-47.75
1772057720.3128257,13.819736922390174,-7.926312031103121,-3.293876682518962,2.300330169737873,-1.2953610173133963,9.680060030471239,0.7529514235449547,1.3635005199186587,0.18216874067690814,-7.051054950379269,36.552688414625976,-49.375
1772057720.3965318,14.0985060906586,-5.593424734191317,-2.106363222233873,2.0731720485644134,-1.1623512390206372,10.124939806681503,0.46124889204217306,0.9049437635890241,0.1439896632895322,-7.051054950379269,36.552688414625976,-49.375
1772057720.4235697,14.330833502012439,-3.57903184033455,-0.5251167603127582,1.7909763569569235,-0.6692587900187522,10.421002328116709,0.42057277953060346,0.3496535470943121,0.04799655442984406,1.5150153881613089,34.00214897066999,-53.0625
1772057720.466489,14.17195532134822,-2.6450453958025197,0.8714092793676878,1.4256959911179157,-0.20420942481742982,10.363800139140501,0.3247640971565427,0.21752909085648048,-0.09817477042468103,1.5150153881613089,34.00214897066999,-53.0625
1772057720.522719,14.17195532134822,-2.6450453958025197,0.8714092793676878,1.4256959911179157,-0.20420942481742982,10.363800139140501,0.3247640971565427,0.21752909085648048,-0.09817477042468103,1.5150153881613089,34.00214897066999,-53.0625
1772057720.581532,13.781734222945209,-1.6780963995718043,1.4187811593080066,1.1357043950593417,0.15538695630499583,10.14175157746459,0.16214515798415263,0.2783885666902269,-0.12544553998709243,1.830744631685243,31.690087651244443,-53.375
1772057720.686635,11.814144664875688,0.9950958123037422,1.332714246181602,0.6994300854029133,0.6083956670102373,9.656077312774624,-0.18281296637983266,0.46116656118715443,-0.4494222823885399,3.706179228641654,31.380206508644665,-53.6875
1772057720.7754135,7.423745999297507,2.0909695649734186,-1.1275382558544196,0.5151817132815631,0.7327712226082937,9.617248154982967,-0.3983051885532925,0.10852692642665808,-0.6806784082777885,5.956177034458826,31.383348771827794,-55.25
1772057720.8524573,3.89443185849038,1.9574307643467594,-2.860752599657901,0.3928140774827141,0.6382510178976343,9.614823566173968,-0.22149022891564835,0.036778957763996444,-0.7101308394051928,6.953208366260169,33.509743260958736,-54.0625
1772057720.9838638,-0.24821955577655128,2.132484995287083,-2.9723992224454543,0.38015350026467487,0.24721722836035595,9.761500008335194,0.03251161385648217,0.1527618629871491,-0.6119560689805118,6.639748535035162,34.196806165071884,-52.5
1772057721.0454736,-1.545239990932637,2.3176861146509626,-2.852658482118454,0.27004513748887937,-0.07295903746251005,9.754308015376242,0.07839958582767918,0.10046601979986698,-0.5748678223756323,6.639748535035162,34.196806165071884,-52.5
1772057721.0980465,-3.3169924619070454,2.4670012540518367,-2.7258899555626765,0.06641279907674959,-0.3598073460622093,9.622407579523749,0.057699719178947825,0.08189296975007902,-0.6588617926278594,12.016052569702488,33.26681359691887,-51.25
1772057721.139168,-5.793389256506468,2.108484913153753,-2.321690394883402,-0.06889669464096757,-0.6978864627181938,9.534629312888326,0.19108258047539717,-0.1339054582717272,-0.7646723785300157,12.016052569702488,33.26681359691887,-51.25
1772057721.2377248,-5.793389256506468,2.108484913153753,-2.321690394883402,-0.18570451876556107,-0.9229117114930724,9.45948829845334,0.23392962194190017,-0.3520119889419953,-0.6370451769779303,4.95495601841331,32.256951357119746,-53.75
1772057721.2893362,-9.460102792177404,0.21885001402439247,-1.246533361896707,-0.18570451876556107,-0.9229117114930724,9.45948829845334,0.23392962194190017,-0.3520119889419953,-0.6370451769779303,4.95495601841331,32.256951357119746,-53.75
1772057721.3479378,-10.699158887831105,-0.22163454100007413,-0.18983929634302915,-0.2268388374598868,-0.9321175579646355,9.409482792726989,0.4069160469773624,-0.025611680505989703,-0.3763366199612773,4.95495601841331,32.256951357119746,-53.75
1772057721.3951092,-11.56051647640287,0.3165040265719849,1.7253545790418818,-0.19087110267303112,-0.7842801960517573,9.309302453117812,0.3358125482644449,0.11718799085544135,-0.11780972450961724,3.3341472873450804,29.254684870397927,-53.75
1772057721.453673,-11.183421570988035,0.4991469585994716,2.4951214118413065,-0.15043367412138495,-0.5253075195113704,9.242633556195626,0.21922630522043046,0.022122800222878415,0.16689710972195776,3.3341472873450804,29.254684870397927,-53.75
1772057721.4957707,-10.671465867909365,0.14311304415920198,2.789802167328665,-0.12352301713593902,-0.35296409618809205,9.526087097351587,0.06022109953272562,-0.1613590107015916,0.17562375598192942,3.647432548393248,28.692621844385734,-53.375
1772057721.6083815,-10.671465867909365,0.14311304415920198,2.789802167328665,-0.12352301713593902,-0.35296409618809205,9.526087097351587,0.06022109953272562,-0.1613590107015916,0.17562375598192942,3.647432548393248,28.692621844385734,-53.375
1772057721.6301079,-9.134691562650257,1.0391261704932708,0.0074814931774773615,-0.3228781449195568,-0.35899903470153965,9.714722262607353,-0.5108647868143634,0.25454119728139746,0.25089107997418486,2.8344969152949457,29.003986833488657,-54.5625
1772057721.7352366,-5.658508465395012,3.2989835081125354,-1.3984143137751721,-0.5657110948191544,-0.5237345888167401,9.649585490574996,-0.22868113399267892,0.49928161803099075,0.04254240051736178,6.206002220483894,31.50869779028243,-54.5625
1772057721.8520489,-4.209450934442774,5.031713501381274,-2.143307222726719,-0.7273137103555474,-0.6333642598636903,9.606237696412881,-0.09414955331463153,0.24203318410975447,-0.21707532571679475,6.206002220483894,31.50869779028243,-54.5625
1772057721.9488974,-3.4578373812451897,4.72602725504939,-2.2471153298476207,-0.7914654690667902,-0.6393586808967293,9.7011593567954,0.029584939265350267,-0.09486105340033202,-0.19634954084936207,7.64201697214172,32.57320431117421,-53.0625
1772057722.0071726,-1.9338314213507195,4.72421050881837,-1.9735112194833264,-0.8341577478670223,-0.6433479011321463,9.764328661435544,0.0686659060290853,0.04045667456027642,0.28361600344907856,7.64201697214172,32.57320431117421,-53.0625
1772057722.0453758,1.4571876587621244,5.500767168551889,-1.2153493483579207,-0.922523993551419,-0.8300677368927561,9.80636712802619,0.10451399235334206,0.14740825959745074,0.4079707126536745,8.707047203564017,30.762189925213516,-53.375
1772057722.0927422,1.4571876587621244,5.500767168551889,-1.2153493483579207,-0.922523993551419,-0.8300677368927561,9.80636712802619,0.10451399235334206,0.14740825959745074,0.4079707126536745,8.707047203564017,30.762189925213516,-53.375
1772057722.2105744,5.573315014173998,6.011493385937316,-1.471339070690179,-1.0206435005912304,-0.9099071994440723,9.897531029336385,-0.03166605349886884,0.02286324514001464,0.5639595145506677,8.204952849038115,32.261490181717605,-52.1875
1772057722.2919683,9.16405166547548,5.695844831514774,-1.450982793022591,-1.0635732887680895,-0.8502632336025447,9.798003576383993,-0.07512709667149937,-0.1004614495633245,0.4919646829059016,9.830474974881037,31.888759959713667,-53.0625
1772057722.3563812,10.300112823680259,5.365907493508971,-1.558464281494886,-1.098893531634216,-0.7670937741221434,9.731769168238673,-0.10120189448046071,-0.1757652620477999,0.5126904677733343,9.830474974881037,31.888759959713667,-53.0625
1772057722.388709,10.300112823680259,5.365907493508971,-1.558464281494886,-1.098893531634216,-0.7670937741221434,9.731769168238673,-0.10120189448046071,-0.1757652620477999,0.5126904677733343,9.830474974881037,31.888759959713667,-53.0625
1772057722.4436624,11.970340212367093,4.589304497780839,-1.8513520199628302,-1.1159047512836866,-0.571241529895734,9.74121269682189,-0.0978958902563027,-0.19975894562324265,0.40033489717619936,8.331174718376952,31.386665605187765,-53.0
1772057722.4756768,11.970340212367093,4.589304497780839,-1.8513520199628302,-1.1159047512836866,-0.571241529895734,9.74121269682189,-0.0978958902563027,-0.19975894562324265,0.40033489717619936,8.331174718376952,31.386665605187765,-53.0
1772057722.5966742,13.710604118065868,2.5773877464662793,-3.109547107775357,-0.5412151272067127,-0.007919389831978728,9.829677012467208,-0.20468599360230927,-0.2795388094840057,0.09817477042468103,7.64227882740698,32.385704494022775,-53.0
1772057722.6820455,13.8021836695942,1.9298281642725215,-4.3768719387152215,-0.2697752752498244,-0.062010974379728155,9.879961731014724,-0.3903144254840734,-0.1456257341513744,-0.011999138607461015,7.204342828611541,32.69759319365622,-51.0
1772057722.7206397,12.933619807838994,1.3022302253579103,-5.986906952557095,-0.13249536108549817,-0.18838697917504665,9.913425649490986,-0.6551712460171409,-0.2998029136517664,-0.20616701789183017,7.204342828611541,32.69759319365622,-51.0
1772057722.7801464,13.122325296221929,0.7944834900765494,-6.142706249098914,0.08035192939860192,-1.035005344615847,8.567544825126847,0.16209336197000448,0.3154767771269313,0.2977968036215325,4.324195812072804,36.381074483567026,-51.75
1772057722.833448,13.122325296221929,0.7944834900765494,-6.142706249098914,0.08035192939860192,-1.035005344615847,8.567544825126847,0.16209336197000448,0.3154767771269313,0.2977968036215325,4.324195812072804,36.381074483567026,-51.75
1772057722.8832383,13.427031701205316,0.6295115181493677,-6.218035841305809,0.13837171242594531,-1.5985372008183447,7.671876170986422,-0.016478225106641937,0.08288020744050933,0.06326818538479445,4.324195812072804,36.381074483567026,-51.75
1772057723.009643,14.279108212902148,0.660995319875664,-6.26443126826574,0.1765020495515455,-1.629015186203029,8.099422869370143,-0.04042011266793656,0.04248599277964685,0.13308135546456762,5.013266273219616,35.257035716631066,-51.875
1772057723.0927765,14.933467258576545,0.7022282293813785,-6.302161452337682,-0.0042393778962886665,-1.552765819163882,8.999012092656141,-0.0021390038963900273,-0.030546278948706512,0.0818123086872342,5.451725982545577,34.57014738269476,-51.75
1772057723.129572,15.236492716552348,0.7240173292241867,-6.285644086597622,-0.0526475112655269,-1.2843015153213084,9.196704149430154,0.0033014339876155335,-0.020721194419262956,0.1439896632895322,5.451725982545577,34.57014738269476,-51.75
1772057723.2390273,15.236492716552348,0.7240173292241867,-6.285644086597622,-0.0526475112655269,-1.2843015153213084,9.196704149430154,0.0033014339876155335,-0.020721194419262956,0.1439896632895322,5.451725982545577,34.57014738269476,-51.75
1772057723.3880167,15.21517870734435,0.715877353790049,-6.286469847948329,-0.09489790860404936,-1.1056555350186643,9.328266004848286,1.828094616993288e-05,-0.013089956624719226,0.12544553998709243,5.012218852158573,36.00703498523679,-52.5625
1772057723.425997,15.21517870734435,0.715877353790049,-6.286469847948329,-0.09489790860404936,-1.1056555350186643,9.328266004848286,1.828094616993288e-05,-0.013089956624719226,0.12544553998709243,5.012218852158573,36.00703498523679,-52.5625
1772057723.4884763,14.660648245005127,0.7916332526416792,-6.347174112777369,-0.1295230984517601,-1.1172372034039764,9.415818949986834,3.04682436165548e-06,-0.002181659437453204,0.1832595714594046,5.012218852158573,36.00703498523679,-52.5625
1772057723.579359,14.297997195293657,0.8383820669830951,-6.037710453787035,-0.16919321299995133,-1.1952153099574119,9.467394233531417,0.05127052019233112,-0.0010192293462276982,0.0545415391248228,5.825329055433715,35.570670118032915,-51.375
1772057723.6738,13.480610488934495,0.7234209376433985,-4.056854619169361,-0.1956866641663247,-1.1802066998923584,9.55523879591378,0.6076287152230573,-0.025331372664717397,0.08726646259971647,5.013964553926978,34.75703620422725,-51.375
1772057723.84182,15.227653697605993,0.7792292915403771,2.1005392728938324,0.09956756720440932,-0.5743781087264288,9.666006651817712,0.020692249587827227,0.02402719864342097,0.29888763440402893,5.459145215061299,29.257652563404214,-52.5625
1772057723.9658587,15.227653697605993,0.7792292915403771,2.1005392728938324,0.09956756720440932,-0.5743781087264288,9.666006651817712,0.020692249587827227,0.02402719864342097,0.29888763440402893,5.459145215061299,29.257652563404214,-52.5625
1772057724.099021,16.45497123754067,0.967453653538052,0.9377095057136399,0.2231962297657129,-0.17797103224173988,9.687413141637226,-0.12984377500862468,0.024907797481193344,0.17780541754692233,5.47363453973906,18.882662681025035,-54.1875
1772057724.2974374,15.606278025822125,1.0920183365365643,-2.6750909756387795,-0.03476350820924051,-0.14928846026000048,9.722270001208868,-0.19197993684715864,-0.00463143941873209,0.07853981633974483,5.830304305473669,32.00817359215573,-53.375
1772057724.389781,16.038545323199582,1.1008454032961341,-2.360208992223149,-0.1032584928301205,-0.2131956094727077,9.728200883861565,0.07852298221432623,0.012108812583012218,0.2279836335417593,5.830304305473669,32.00817359215573,-53.375
1772057724.7269993,16.452745616567945,1.1679674606178345,-0.8000689083530391,-0.15549865526901907,-0.27915020580835215,9.732147820014635,0.19634934937078835,0.0002742141925489932,0.1308996938995747,6.520334902593103,30.196635495664516,-53.375
1772057724.881686,13.01658996664444,1.197964192308881,-2.616829371820327,-0.19026389981125505,-0.3230422529086077,9.734774461934338,-0.18435783952569987,0.005196691935073122,-0.10362892433716332,5.832050007242074,30.758174811146183,-52.6875
1772057725.0513468,11.804889794635429,1.2581790375600377,-5.462893410933453,-0.2042497569857896,-0.6119279385362373,9.739267563348033,-0.3523395225608733,0.0005987675843192419,-0.00545415391248228,6.954343072409633,32.69724405330253,-53.0625
1772057725.0982761,11.804889794635429,1.2581790375600377,-5.462893410933453,-0.2042497569857896,-0.6119279385362373,9.739267563348033,-0.3523395225608733,0.0005987675843192419,-0.00545415391248228,6.954343072409633,32.69724405330253,-53.0625
1772057725.2825341,9.804733965681118,1.8658270217121244,-6.880073304403511,-0.0062715862297496785,-0.6619022802681751,10.232490560068408,0.33999915132637526,0.2437303318764505,-0.2399827721492203,6.51588336308367,33.38413238723884,-53.0625
1772057725.324914,9.804733965681118,1.8658270217121244,-6.880073304403511,-0.0062715862297496785,-0.6619022802681751,10.232490560068408,0.33999915132637526,0.2437303318764505,-0.2399827721492203,6.51588336308367,33.38413238723884,-53.0625
1772057725.3980541,8.819162020374195,2.065510703925388,-5.611458250055387,0.08636849683153597,-0.6009276442984067,10.636415956489792,0.3391977699220059,0.03647116190621529,-0.2279836335417593,6.950764383784402,35.25974155437209,-53.75
1772057725.5023026,2.861654824236708,-6.012777110953652,-8.806513252018629,0.1924750518954644,-0.5924102042560151,10.786397467905855,-0.5168019902638267,-0.9617446029840296,-0.96647607329186,6.513788520961585,34.88413092445029,-51.75
1772057725.6632178,-3.626219571955688,-7.21958117923684,-9.812798435730919,0.2224864830829236,-0.9192935928616544,10.489887613182843,-0.22278824269096753,0.1851302760986335,-1.177006414313676,-0.739172101900035,36.99900378190976,-52.5625
1772057725.7377818,-7.2879233138468225,-5.743379512424741,-10.037179797658919,0.24245875528852487,-1.136830836451998,10.158759148804005,-0.21160566471389855,0.7698317628700813,-1.2348204457859882,-0.739172101900035,36.99900378190976,-52.5625
1772057725.862648,-10.924043602459514,-3.828254656384603,-10.982341302747965,0.5065304363392072,-1.2076566821715347,9.938396854707202,-0.3443578333674852,0.5340266873390743,-0.7395832705325971,-1.6126001170151485,35.872782887763286,-51.5
1772057725.9295752,-12.265974069199494,-5.27199359366578,-15.994357734690992,0.7491693591083144,-1.254697058242582,9.872030890569562,-0.8014384032938978,-0.23128477860422142,-0.026179938779914945,-0.0512363469026868,36.68746422263,-51.5
1772057726.004098,-11.158530563689771,-6.300552792797744,-19.421928608953227,0.9775450206606306,-1.285908469963665,9.827865082792357,-0.6388301280067735,-0.2845084464068816,0.26070855701665296,-0.0512363469026868,36.68746422263,-51.5
1772057726.1126401,-11.158530563689771,-6.300552792797744,-19.421928608953227,0.9775450206606306,-1.285908469963665,9.827865082792357,-0.6388301280067735,-0.2845084464068816,0.26070855701665296,-0.0512363469026868,36.68746422263,-51.5
1772057726.2453449,-9.304408136098022,-4.819109575857337,-19.00577788021568,1.1298020998827651,-1.5040407140760583,9.376989155958785,0.08051116830481432,0.1506472336856523,0.3741549583962844,-2.0598756202715554,42.87216506579777,-48.6875
1772057726.3743577,-5.870026882884685,4.2075555840047505,-6.382106256920716,0.6517321234020942,-1.589493616680825,9.392401617915167,0.42316423684469934,0.056223399581217866,0.3883357585687383,4.828210438543952,33.506775567952445,-54.875
1772057726.4320898,-5.279050586365376,2.555085916679019,-7.008393296529393,0.21675556425560744,-1.3926047481191717,9.602340287455835,-0.2491586490602634,-0.459588172973309,0.06217735460229799,4.828210438543952,33.506775567952445,-54.875
1772057726.5325248,-4.913598957677855,1.4387628776513863,-7.376997845964249,0.040933120515798505,-1.2012066172368034,9.725326568329951,-0.1401472775601021,-0.4081668349750759,0.08835729338221293,6.63922482450464,34.571805799374744,-53.5625
1772057726.5899436,-4.913598957677855,1.4387628776513863,-7.376997845964249,0.040933120515798505,-1.2012066172368034,9.725326568329951,-0.1401472775601021,-0.4081668349750759,0.08835729338221293,6.63922482450464,34.571805799374744,-53.5625
1772057726.6322525,-3.564573752053197,-1.6896445358500267,-6.612583430782325,-0.1105049670675992,-0.9622461963306551,9.888401054171652,-0.03687188590702693,-0.15494961607332564,0.5672320068981571,4.5132667608157995,35.256337435923705,-54.375
1772057726.71425,-3.564573752053197,-1.6896445358500267,-6.612583430782325,-0.1105049670675992,-0.9622461963306551,9.888401054171652,-0.03687188590702693,-0.15494961607332564,0.5672320068981571,4.5132667608157995,35.256337435923705,-54.375
1772057726.774352,-0.5577422884900256,-1.865960594081386,-7.753168939954347,-0.166525467806432,-1.1255356255268443,9.969218600388295,-0.3902930977135418,-0.1608973502135468,0.8268497331323136,4.136870565098214,36.25581275020081,-55.875
1772057726.8807805,3.1401602852989616,-2.4392729779525726,-13.032261156933984,-0.10345323190236913,-1.2340627669763147,9.996240880945772,-0.6990984533171049,-0.08933371442476534,0.30325095753401476,3.6951813075007025,39.25519882900477,-56.25
1772057726.9695516,3.293157875580454,-1.9273798531839115,-14.444710365806307,-0.027836741207861823,-1.4433890969968195,9.763340528749167,-0.40711713738523164,0.16960120337790116,0.08617563181722002,3.6951813075007025,39.25519882900477,-56.25
1772057727.0249724,3.293157875580454,-1.9273798531839115,-14.444710365806307,-0.027836741207861823,-1.4433890969968195,9.763340528749167,-0.40711713738523164,0.16960120337790116,0.08617563181722002,3.6951813075007025,39.25519882900477,-56.25
1772057727.1247163,3.2083414766760496,-0.9252769049143263,-15.676921273339914,0.21331069309368186,-1.758759773111381,9.505202113610535,0.2855719213036072,0.16184193236291397,-0.11562806294462433,5.624649189930826,45.00789905938968,-56.75
1772057727.2292612,1.366995587082016,-1.998995686440352,-12.414684698736723,0.19310888576827498,-1.8694925726077019,9.433214602642687,0.6166097628070683,-0.2074877483946133,-0.4145156973486533,5.124998817880691,44.75720102248041,-60.0
1772057727.3565452,-0.758351393265517,-6.948769919870868,-10.3829979006224,0.17102158303426862,-2.2096568935072005,9.376842003787491,0.043514296001705574,-0.6958899474725198,-0.12544553998709243,-1.3012351279122267,36.68571852086159,-66.75
1772057727.3928788,-0.758351393265517,-6.948769919870868,-10.3829979006224,0.17102158303426862,-2.2096568935072005,9.376842003787491,0.043514296001705574,-0.6958899474725198,-0.12544553998709243,-1.3012351279122267,36.68571852086159,-66.75
1772057727.49782,2.0175188714480905,-9.204179625530221,-10.387264928840153,0.5918719491001501,-2.576807404889997,9.846586080441725,0.04478952519156628,-0.046843218005829954,0.2585268954516601,-6.2403887295798945,37.866321840835454,-66.375
1772057727.6119227,2.4214528800559094,-8.034132829431076,-9.867613202223783,0.8334154548679762,-2.6608902464529174,9.847728074669948,0.13165524528613676,0.2401668709937326,0.07744898555724837,-9.730609386503538,30.861440702230496,-68.75
1772057727.6673615,2.481207469597819,-7.791990176515305,-9.717620890498477,0.9336677084889515,-2.516224021305529,9.69126780882791,0.08929112548095611,0.11248038082766788,0.05999569303730508,-9.730609386503538,30.861440702230496,-68.75
1772057727.7829845,2.7509043643221407,-7.753857506292851,-9.798575454447638,1.0978775213028364,-2.0493881671785172,9.52454307311643,-0.09925788734321664,-0.005592779102088334,0.03381575425739013,-3.42483649421372,35.68275180304767,-66.875
1772057727.9172235,2.7275120609706467,-7.376777956767223,-10.574788303278728,1.1964782428075853,-1.9954210683352982,9.523023364409532,-0.22706472707156675,0.12294688848249387,-0.018544123302439753,-3.4227416520916343,34.182753265836226,-66.5
1772057727.9876225,1.2724008118694874,-5.826475490024575,-10.819834997358443,1.2620959215267669,-1.9595065669071308,9.515321791826711,0.17823338957250268,0.4747607672437276,-0.24434609527920614,-3.4227416520916343,34.182753265836226,-66.5
1772057728.0717993,-1.1674713037237032,-3.996955374366497,-9.30299695941381,1.1149150494912814,-1.808758030755146,9.510196481305046,0.34061772326904527,0.581889068093878,-0.5497787143782138,-2.2988774553325118,34.99682360508399,-65.6875
1772057728.1637955,-3.639082548076775,-2.639370018712822,-7.823207079155431,0.8195643801179618,-1.6786062154931245,9.39974206977213,0.38114904502618224,0.45977250584718915,-0.6654067773228381,-2.2988774553325118,34.99682360508399,-65.6875
1772057728.1993856,-3.639082548076775,-2.639370018712822,-7.823207079155431,0.8195643801179618,-1.6786062154931245,9.39974206977213,0.38114904502618224,0.45977250584718915,-0.6654067773228381,-2.2988774553325118,34.99682360508399,-65.6875
1772057728.2872336,-8.49171948078165,0.566532405768781,-6.4001725864831815,0.4309944133318411,-1.6013383898211373,9.314114581846074,-0.16586248349713414,0.04012914094139846,-0.28579766501407144,4.213597973561191,26.068409970061484,-69.375
1772057728.377871,-10.276607856391843,0.1047675622996766,-7.0649108219272145,0.31439103124215817,-1.6443391980907762,9.306047984841033,-0.09270376855777207,-0.012128616941362979,-0.4526947747360292,6.9648172830200625,25.197251367245297,-69.0625
1772057728.443024,-11.568175222832108,-0.2007670268737744,-7.345319962759444,0.2233843193022004,-1.6529037915883205,9.421103776107469,-0.11441067725528452,-0.09069882493329488,-0.32288591161895097,6.9648172830200625,25.197251367245297,-69.0625
1772057728.5167077,-12.101428027682035,-1.1004664947389284,-7.922001183737454,0.1628203691177422,-1.658603432888158,9.54450368384035,-0.14799788670868502,-0.25437050851989085,-0.12217304763960307,6.153714636778586,24.196117636288204,-70.0
1772057728.5778687,-12.261222986222931,-1.6384008143743956,-8.160507664571647,0.12251573681363791,-1.6623964805040348,9.703562513237639,-0.020538384957563625,-0.13420100023480777,-0.08290313946973066,6.153714636778586,24.196117636288204,-70.0
1772057728.6837919,-12.976374928197396,-2.2166791700829718,-8.132751151462918,0.09568411093962308,-1.6582304944308988,9.809414387397988,0.06887156667349704,-0.10680533746781484,-0.1461713248545251,4.84139048689541,24.069284771330423,-71.1875
1772057728.7240996,-13.470770399272718,-2.9894529829263923,-7.916380608374469,0.09120839743013424,-1.6554393906205869,9.853096733550235,0.05372944064669497,-0.1995471913301076,-0.14944381720201447,4.84139048689541,24.069284771330423,-71.1875
1772057728.7973268,-13.470770399272718,-2.9894529829263923,-7.916380608374469,0.09120839743013424,-1.6554393906205869,9.853096733550235,0.05372944064669497,-0.1995471913301076,-0.14944381720201447,4.84139048689541,24.069284771330423,-71.1875
1772057728.8215544,-13.75332512989986,-3.4912057464170667,-7.695866995133631,0.08808036716053697,-1.5465384719673534,9.85540595329222,0.09389819030479496,-0.06204628051986513,-0.07963064712224129,3.716915294517345,23.692714005435995,-72.25
1772057728.8513916,-12.073748984640257,-3.5442692501188136,-7.524061917602984,0.21645792732099473,-1.473883932603,9.856942713234837,0.058910898459959816,-0.00428105461714171,-0.10799224746714914,3.716915294517345,23.692714005435995,-72.25
1772057728.9050188,-12.284233894878243,-3.3731786517750435,-7.438695093076268,0.36198692020146384,-1.3418213473597156,9.82451429273672,0.011901628526419647,0.06982985953249163,-0.06435901616729091,3.7182245708436485,22.755214919678842,-71.0625
1772057729.0014257,-12.325639799723172,-2.894870606753697,-7.552195201441792,0.4120360226429284,-1.27741633438753,9.802933541144418,-0.08742633577711507,0.114415247491827,0.011999138607461015,3.7182245708436485,22.755214919678842,-71.0625
1772057729.0246284,-12.262678281042902,-2.671094695621688,-7.993660185858085,0.44529642469323205,-1.201104433253756,9.785226680325211,-0.18329747805058982,0.02701480972178599,0.014180800172453928,4.343223961348419,22.756087770563045,-71.875
1772057729.0637834,-10.702672179253296,-2.5930609132946345,-8.427615259953818,0.45744224191848154,-1.1837848149227557,9.75671740371203,-0.19859499211983633,0.04553758716960664,-0.022907446432425576,4.343223961348419,22.756087770563045,-71.875
1772057729.1167305,-10.702672179253296,-2.5930609132946345,-8.427615259953818,0.45744224191848154,-1.1837848149227557,9.75671740371203,-0.19859499211983633,0.04553758716960664,-0.022907446432425576,4.343223961348419,22.756087770563045,-71.875
1772057729.1950269,-7.781426133643101,-2.349444389132558,-9.597005138784887,0.47110808904019214,-1.3105596054082422,9.730689988009434,-0.18002803571877166,0.029201039395781676,-0.0719948316447661,4.341129119226332,24.256086307774492,-70.6875
1772057729.2112055,-7.781426133643101,-2.349444389132558,-9.597005138784887,0.47110808904019214,-1.3105596054082422,9.730689988009434,-0.18002803571877166,0.029201039395781676,-0.0719948316447661,4.341129119226332,24.256086307774492,-70.6875
1772057729.267425,-5.512542468005764,-2.5732251853167942,-10.746990100291864,0.4149899704153207,-1.5584760155465156,9.68236685756027,-0.21816289692095872,-0.002486341873618752,-0.14180800172453928,3.653018794052144,24.69262574515521,-71.5
1772057729.326175,-5.512542468005764,-2.5732251853167942,-10.746990100291864,0.4149899704153207,-1.5584760155465156,9.68236685756027,-0.21816289692095872,-0.002486341873618752,-0.14180800172453928,3.653018794052144,24.69262574515521,-71.5
1772057729.4049542,-2.055033460655767,-2.1529587489668134,-11.713843480610663,0.33916869714618686,-1.8521827535541011,9.525053329872422,-0.05463441407936059,0.06646444223328134,0.019634954084936207,3.653018794052144,24.69262574515521,-70.6875
1772057729.4502418,-2.055033460655767,-2.1529587489668134,-11.713843480610663,0.33916869714618686,-1.8521827535541011,9.525053329872422,-0.05463441407936059,0.06646444223328134,0.019634954084936207,3.653018794052144,24.69262574515521,-70.6875
1772057729.5259366,0.37403999140629174,-1.9454065058352072,-11.889731660820402,0.23992222209001005,-2.0570141731716025,9.496619718957936,0.05022691625121018,-0.03483647403893319,-0.006544984694978736,3.6520586580795213,25.380125074710456,-70.6875
1772057729.5860085,0.37403999140629174,-1.9454065058352072,-11.889731660820402,0.23992222209001005,-2.0570141731716025,9.496619718957936,0.05022691625121018,-0.03483647403893319,-0.006544984694978736,3.6520586580795213,25.380125074710456,-70.6875
1772057729.6369157,2.595192034892152,-1.9565172378606543,-11.755160390842768,0.19083667179875194,-2.1315626345101046,9.534546689507232,0.06873902981376503,-0.011903151938600474,0.06981317007977318,3.964034642801385,25.75556113445542,-70.5625
1772057729.7348785,4.016348547252844,-1.8140687625056278,-11.44035278940951,0.22836200390321493,-2.1409343966949903,9.569821999857727,0.09923046592396174,0.02522771403916717,0.1734420944169365,3.964034642801385,25.75556113445542,-70.5625
1772057729.8267994,6.402389547089755,-1.7147199986966373,-10.575533404206949,0.3268429892566418,-2.0868564713394884,9.593297324844945,0.16577564900282696,0.022048153026017855,0.10035643198967395,4.339034277104247,25.75608484498594,-70.5625
1772057729.8824708,8.347147729135344,-2.3333534065494552,-10.063476316881461,0.41903993798512595,-1.862030702390215,9.568056342041668,0.01870406349733915,-0.11451122245921914,0.11780972450961724,2.527583465701457,25.003554308816028,-71.375
1772057729.9371548,8.347147729135344,-2.3333534065494552,-10.063476316881461,0.41903993798512595,-1.862030702390215,9.568056342041668,0.01870406349733915,-0.11451122245921914,0.11780972450961724,2.527583465701457,25.003554308816028,-71.375
1772057730.023785,10.59520723166372,-2.596113706836676,-10.234714664340038,0.3665726669896003,-1.764221195087593,9.558671182218854,-0.06854098623025742,-0.12990471149585778,0.21380283336930536,2.527583465701457,25.003554308816028,-71.375
1772057730.0812397,12.182466391764201,-2.857793509499426,-9.9179368555988,0.3148793538206156,-1.6623572259540653,9.522319457830001,0.08085241263331974,-0.09369862330910653,0.06217735460229799,2.527583465701457,25.003554308816028,-71.375
1772057730.2017424,12.651387843873772,-2.9663699392817735,-9.331522779618687,0.2804453297812321,-1.571152133274452,9.554994690349018,0.1648143093194707,-0.07067389647792414,0.019634954084936207,1.7129894159231698,26.502418139878014,-71.75
1772057730.2369475,13.945586994551999,-3.2450453644418675,-8.161147100788575,0.2943354076412629,-1.517094991620873,9.57673969258416,0.1364329322742283,-0.05653271885117984,0.12544553998709243,1.7129894159231698,26.502418139878014,-71.75
1772057730.2831998,14.27126822362287,-3.215703053393166,-7.872362197370642,0.313614424630353,-1.4811065527464398,9.617971642322612,0.10689369537430285,0.005603442987354128,0.11235557059713497,-0.7854370145043456,25.373927833432617,-72.1875
1772057730.3851051,14.758806204388362,-3.0026015458868565,-7.686030679776874,0.36993080486335733,-1.457095917191509,9.672171937941048,0.015239624406375047,0.02292875186379023,0.05672320068981571,-0.7854370145043456,25.373927833432617,-72.1875
1772057730.487555,15.033540260410984,-3.0084594265462816,-7.667750880169484,0.4106837604493507,-1.3909358091142578,9.681480735559589,-6.09364872331096e-06,0.004363318874906408,0.06326818538479445,0.6530217196292482,24.688436060911037,-73.375
1772057730.5588524,15.589551364380593,-2.8874466298475943,-7.6212746634204995,0.48122073212990657,-1.2966696380666012,9.66425985443741,-0.008760152817791026,0.02398606651453862,0.001090830782496456,1.7152588282220962,24.877419724565613,-72.1875
1772057730.6160045,15.54256515365856,-2.8578601612862937,-7.969250915583524,0.5281622988337141,-1.2339365542565133,9.652799550420445,-0.07529467201139042,0.019529819496601722,-0.030543261909900768,1.7152588282220962,24.877419724565613,-72.1875
1772057730.7064445,15.343938816718223,-2.7606858990007517,-8.161536528399276,0.5059357118276286,-1.2324044355606805,9.645172846117141,-0.04148809120395074,0.026122023586566998,-0.04908738521234052,0.6516251582145242,25.688435085718666,-73.375
1772057730.7690492,15.129699403585358,-2.844019651772216,-8.123135424094471,0.49118153969383127,-1.2581456952450267,9.640097359599162,0.013105190746527504,-0.010890016241096086,-0.10581058590215622,0.6511014476840027,26.06343472002153,-71.375
1772057730.841946,15.129699403585358,-2.844019651772216,-8.123135424094471,0.49118153969383127,-1.2581456952450267,9.640097359599162,0.013105190746527504,-0.010890016241096086,-0.10581058590215622,0.6511014476840027,26.06343472002153,-71.375
1772057730.9013638,15.051787837548355,-2.8936840924456977,-8.000015489113983,0.48138148956944443,-1.2886566497970156,9.690241467335456,0.027257032258537598,0.00985555277306011,-0.0272707695624114,0.6511014476840027,26.06343472002153,-71.375
1772057730.9818468,15.711095419297793,-2.726253973322906,-7.553812552046627,0.48730477499604924,-1.3737107009837204,9.69013057992443,0.06760249772961359,0.02082021621101676,-0.00545415391248228,2.1527584015754355,24.878030720184555,-72.5625
1772057731.0264518,15.711095419297793,-2.726253973322906,-7.553812552046627,0.48730477499604924,-1.3737107009837204,9.69013057992443,0.06760249772961359,0.02082021621101676,-0.00545415391248228,2.1527584015754355,24.878030720184555,-72.5625
1772057731.0831323,15.807418531693695,-2.758620305383819,-7.4266991376437455,0.49556446142683663,-1.3923013794622594,9.670016229237119,0.0589261325817681,-0.01518935180440773,-0.013089969389957472,1.028719634639472,24.188960259037742,-73.75
1772057731.143559,15.807418531693695,-2.758620305383819,-7.4266991376437455,0.49556446142683663,-1.3923013794622594,9.670016229237119,0.0589261325817681,-0.01518935180440773,-0.013089969389957472,1.028719634639472,24.188960259037742,-73.75
1772057731.2046173,16.598360433768303,-2.9207161778085022,-7.044884070996953,0.532510035862374,-1.3660598409418874,9.683363994372836,0.06217424714305466,0.0022684939317603853,0.009817477042468103,1.7166553896368202,23.87742069975798,-72.6875
1772057731.2494535,16.598360433768303,-2.9207161778085022,-7.044884070996953,0.532510035862374,-1.3660598409418874,9.683363994372836,0.06217424714305466,0.0022684939317603853,0.009817477042468103,1.7166553896368202,23.87742069975798,-72.6875
1772057731.277138,16.520769171259282,-2.975100471385057,-6.944050147318914,0.5088150672909818,-1.3102956816004028,9.69896425921344,0.02185010944251025,-0.023967785568368687,-0.031634092692397225,0.21665685242537244,23.875325857635893,-73.375
1772057731.2950034,16.520769171259282,-2.975100471385057,-6.944050147318914,0.5088150672909818,-1.3102956816004028,9.69896425921344,0.02185010944251025,-0.023967785568368687,-0.031634092692397225,0.21665685242537244,23.875325857635893,-73.375
1772057731.33539,16.57271489637617,-2.9361812756782175,-6.897436138466345,0.49304165874292405,-1.2698401480399282,9.689275390954569,0.029424980986363355,0.019676067065961186,0.03490658503988659,0.21665685242537244,23.875325857635893,-73.375
1772057731.3984597,17.013622077438377,-2.8011780049198096,-6.779075285931179,0.48254930320864864,-1.2462625508185454,9.709588451018595,0.03597300612308462,0.017503548101592947,0.06326818538479445,1.716218964194719,24.189920395010365,-73.0
1772057731.4898548,17.178929808350574,-2.7823338580817514,-6.654399107419506,0.4521463270375973,-1.2272595163791102,9.716416342164818,0.06545282994795777,-0.0020902547066035397,0.017453292519943295,1.716218964194719,24.189920395010365,-73.0
1772057731.566562,17.914792566355207,-2.8312787439042855,-5.899314829727854,0.4417602093611626,-1.1314768095521714,9.735126624711297,0.1276301239153741,-0.0020034202122963586,0.09926560120717749,1.0302907662310365,23.063961356129155,-75.375
1772057731.6090038,17.914792566355207,-2.8312787439042855,-5.899314829727854,0.4417602093611626,-1.1314768095521714,9.735126624711297,0.1276301239153741,-0.0020034202122963586,0.09926560120717749,1.0302907662310365,23.063961356129155,-75.375
1772057731.6482735,18.333887374347785,-2.8501833558243805,-5.434019613524987,0.4493189356242999,-1.0322321721471759,9.776840425326329,0.07421450617792964,-0.027167150939868764,0.030543261909900768,1.7187502317589063,22.37742216254653,-73.375
1772057731.753709,18.35183131260754,-2.9739902720229248,-5.142580052173309,0.4466312961873652,-0.9944834039594254,9.787932673471392,-0.006523650541828025,-0.015280756535257395,0.020725784867432664,0.21875169454745844,22.375327320424446,-73.75
1772057731.7831416,18.35183131260754,-2.9739902720229248,-5.142580052173309,0.4466312961873652,-0.9944834039594254,9.787932673471392,-0.006523650541828025,-0.015280756535257395,0.020725784867432664,0.21875169454745844,22.375327320424446,-73.75
1772057731.8188696,18.53703357993301,-2.9349907808014586,-5.248558081778344,0.47034325509749353,-0.9024654803202519,9.80022692433656,-0.029472206763969014,0.014139654214563478,0.055632369907319255,1.0312509022036593,22.376462026573908,-74.1875
1772057731.9073987,18.53703357993301,-2.9349907808014586,-5.248558081778344,0.47034325509749353,-0.9024654803202519,9.80022692433656,-0.029472206763969014,0.014139654214563478,0.055632369907319255,1.0312509022036593,22.376462026573908,-74.1875
1772057731.9553454,18.80683002267957,-2.68984811550867,-5.2025164960032555,0.48732755365401376,-0.8679464455637256,9.80015101561107,0.020652640871125706,0.052388771330312625,0.039269908169872414,1.4687504755569984,22.37707302219285,-74.5625
1772057731.9814966,18.84586188165778,-2.6201630810554155,-5.185146698321531,0.49195888434170115,-0.8583641906247859,9.790065164080254,0.009776335339657069,0.029466113115245704,0.039269908169872414,1.4687504755569984,22.37707302219285,-74.5625
1772057732.0047317,18.90705685648383,-2.5758876418770145,-5.1795343266800264,0.4749516458920981,-0.8386349031465853,9.773317807430882,0.01087478211928781,0.02401348793379352,0.038179077387375956,1.0317746127341807,22.001462392271048,-74.1875
1772057732.0774217,18.897161720327155,-2.52455106640298,-5.149539849534891,0.4569619884125586,-0.8388950598090692,9.762172628660956,0.017418237019466595,0.02511345812560509,0.003272492347489368,1.0317746127341807,22.001462392271048,-74.1875
1772057732.1474917,18.787679458390055,-2.25619845117328,-4.995414502266093,0.4450134305872583,-0.8557937333877718,9.744720301567417,0.04244790747512616,0.06769085563610161,-0.004363323129985824,0.2204101112274432,21.18782847846538,-73.75
1772057732.163782,18.787679458390055,-2.25619845117328,-4.995414502266093,0.4450134305872583,-0.8557937333877718,9.744720301567417,0.04244790747512616,0.06769085563610161,-0.004363323129985824,0.2204101112274432,21.18782847846538,-73.75
1772057732.2809875,18.587116446736133,-2.218813654890229,-4.7073542883782,0.43272617009599024,-0.8976931116893684,9.720233066546095,0.008842417075555725,-0.08289087132577513,0.014180800172453928,1.7192739422894276,22.00242252824367,-75.375
1772057732.3324423,18.410677330149063,-2.431808124032997,-4.6592605771382845,0.4355936677355493,-0.908294270569726,9.720155103182902,0.01974614402627926,-0.07960314804778705,0.02399827721492203,0.6567749784313189,22.000938681740525,-75.0
1772057732.402526,18.410677330149063,-2.431808124032997,-4.6592605771382845,0.4355936677355493,-0.908294270569726,9.720155103182902,0.01974614402627926,-0.07960314804778705,0.02399827721492203,0.6567749784313189,22.000938681740525,-75.0
1772057732.4384387,18.35483423941604,-2.5379969006633813,-4.540072007563134,0.44079100398055976,-0.8752032503856578,9.733483666264883,0.05567649460830071,-0.03155636782184924,0.02181661564992912,0.6567749784313189,22.000938681740525,-75.0
1772057732.4849293,18.504449691087693,-2.5674923669268375,-4.2796371820392345,0.4542664119133866,-0.8397870973614934,9.728973229276859,0.08291524592066837,-0.008610858424069908,0.02945243112740431,2.4698842065140933,21.565970375951373,-74.6875
1772057732.521871,18.56313903577236,-2.562162602092303,-4.082010542080032,0.45319882002693723,-0.8162320581100788,9.739352030675487,0.08289544156231761,0.005569927919375918,0.026179938779914945,2.4698842065140933,21.565970375951373,-74.6875
1772057732.6060085,18.7183442690658,-2.566028223085727,-3.8103214006391366,0.41566879838548426,-0.783882288582654,9.73287856023819,0.06218643444050128,-0.006458143818052432,0.038179077387375956,1.4718054536517071,20.189575155426155,-75.0
1772057732.6780627,18.89442904763826,-2.5888244629172315,-3.7268445011864113,0.3873805813532854,-0.7857743091030388,9.731915649682891,0.004367889111448892,-0.0032663955074564953,0.030543261909900768,1.4718054536517071,20.189575155426155,-75.0
1772057732.7079642,18.89442904763826,-2.5888244629172315,-3.7268445011864113,0.3873805813532854,-0.7857743091030388,9.731915649682891,0.004367889111448892,-0.0032663955074564953,0.030543261909900768,1.4718054536517071,20.189575155426155,-75.0
1772057732.727847,19.008408304958696,-2.5840214324317854,-3.7363917911845834,0.3685037007251243,-0.750237234726989,9.731274843464755,-7.6170609041387e-06,0.00545414859363301,0.037088246604879506,2.8458439767895785,20.878994756926648,-76.25
1772057732.8007307,19.126523291919664,-2.5478579176581517,-3.7192887119191833,0.4060712576741523,-0.693066549443864,9.73084839408486,0.008703786567100401,0.01637463307834565,0.04363323129985824,2.8458439767895785,20.878994756926648,-76.25
1772057732.8740804,19.35391550266588,-2.4615272151446392,-3.5618910666918553,0.4544737913211508,-0.6449520701131999,9.730564596786293,0.03925311234016857,0.01205396974450242,0.04036073895236887,1.4718054536517071,20.189575155426155,-75.5
1772057732.9125826,19.35391550266588,-2.4615272151446392,-3.5618910666918553,0.4544737913211508,-0.6449520701131999,9.730564596786293,0.03925311234016857,0.01205396974450242,0.04036073895236887,1.4718054536517071,20.189575155426155,-75.5
1772057732.962007,19.500605763881023,-2.666838508393967,-3.459158869672226,0.5114898940592856,-0.6083445737570623,9.696822568930173,0.010984467796307407,-0.05452625181452182,0.026179938779914945,2.1587810726764327,20.56553492570164,-75.0
1772057733.0533276,19.544964235420345,-2.757693976344244,-3.419231789079866,0.5079545621994909,-0.6253900928669167,9.684505008287983,0.01857609687414962,-0.022881526086184573,0.008726646259971648,2.1587810726764327,20.56553492570164,-75.0
1772057733.0739043,19.563647062994498,-2.7482051051915195,-3.3471032349908154,0.51898227211981,-0.6367150088078465,9.676307809276775,0.03053256823907906,0.007678463572149391,0.015271630954950384,2.3458444643857623,20.878296476219287,-73.75
1772057733.088886,19.563647062994498,-2.7482051051915195,-3.3471032349908154,0.51898227211981,-0.6367150088078465,9.676307809276775,0.03053256823907906,0.007678463572149391,0.015271630954950384,2.3458444643857623,20.878296476219287,-73.75
1772057733.1250103,19.62471195228351,-2.721363012149736,-3.2873894580506673,0.5062083943275937,-0.6141736677758376,9.66750755319621,0.03924854210362608,0.015326458900682228,0.03490658503988659,2.3458444643857623,20.878296476219287,-73.75
1772057733.1536407,19.687361429700406,-2.7427897501787983,-3.2360217389738186,0.491012632806116,-0.5958368919849986,9.691757086445769,0.030569130131418928,-0.018501449677289058,0.03599741582238305,2.346804600358385,20.19079714666404,-75.0
1772057733.2339003,19.784729984104278,-2.9337086858488477,-3.186925777628055,0.46751958948058325,-0.5836526591471558,9.707894879938314,0.018626369476116934,-0.05887890680416243,0.028361600344907856,2.346804600358385,20.19079714666404,-75.0
1772057733.282112,19.798633375756403,-3.147388984439913,-3.1820233214957496,0.46526099370876023,-0.5721803932394248,9.725324624651277,0.005527272378312741,-0.05235220943797276,0.004363323129985824,2.034304905106,20.19036072122194,-75.5
1772057733.3153598,19.814371743862544,-3.2186817443977005,-3.138240752068875,0.4771383572335477,-0.5645270418156835,9.736923925054748,0.026219521966139973,-0.028325010794551787,0.013089969389957472,2.034304905106,20.19036072122194,-75.5
1772057733.3597214,19.861156119765432,-3.3384803435212156,-2.933428507251519,0.5184376345851089,-0.5192458040550332,9.741298018193262,0.06877406829392407,-0.03699223546931232,0.007635815477475192,1.6583451348305152,20.877336340246664,-75.0
1772057733.418946,19.806794979126984,-3.5787334279713394,-2.6182741067786566,0.5559571676549923,-0.48909763118807414,9.744208928315123,0.10701099811222659,-0.07839044535459422,-0.032724923474893676,1.6583451348305152,20.877336340246664,-75.0
1772057733.4943945,19.611906312978906,-3.972630483011563,-2.2462840520646434,0.607686865353889,-0.4689969856907634,9.762871665020821,0.08741414847966844,-0.10568860974201418,-0.06326818538479445,0.9724169368668328,19.751377301365455,-75.75
1772057733.5317602,19.55633433085208,-3.998803150313359,-2.056999942657718,0.6421264162757336,-0.46565555598680164,9.775291507822034,0.055614034708886775,0.01316765064594144,-0.02399827721492203,0.9724169368668328,19.751377301365455,-75.75
1772057733.5741313,19.47469654023503,-3.9415106945387097,-2.022713348927354,0.6048336006857744,-0.46351596161592157,9.76348610422359,0.014162505397275893,0.013109760983069986,-0.03599741582238305,0.9733770728394556,19.063877971810207,-75.75
1772057733.6388898,19.533332269921463,-3.9427931346127343,-2.0535761470024974,0.5799689319593189,-0.4286410010110162,9.748939516589186,-0.02180136025272376,-0.010938765430882574,0.030543261909900768,0.9733770728394556,19.063877971810207,-75.75
1772057733.6631799,19.533332269921463,-3.9427931346127343,-2.0535761470024974,0.5799689319593189,-0.4286410010110162,9.748939516589186,-0.02180136025272376,-0.010938765430882574,0.030543261909900768,0.9733770728394556,19.063877971810207,-75.75
1772057733.6995249,19.601884530584737,-3.966420876226908,-2.159652416406428,0.6202886162466754,-0.4053526861903355,9.735913813307201,-0.037082116787981165,-0.004415114889054551,0.019634954084936207,1.3483767071423176,19.06440168234073,-75.0
1772057733.7911897,19.58329383012597,-3.9631261581867365,-2.2223261633041167,0.690621340488837,-0.39982916665907153,9.727245353279681,-0.014203637526158242,0.01634264142254827,-0.002181661564992912,1.3483767071423176,19.06440168234073,-75.0
1772057733.851635,19.396714075874595,-3.9022232099530614,-2.219024494601759,0.7374269828039864,-0.39615332611277143,9.71813147825709,0.00542672717437811,0.019642551997982975,-0.05345070834232634,0.16140157571377622,18.687743631357883,-75.375
1772057733.9603465,19.264763408548436,-3.9226342109280083,-2.487233449502243,0.705720509228663,-0.38105338332077715,9.637829919475518,-0.04470421410943992,-0.014243246242859765,-0.00545415391248228,1.3483767071423176,19.06440168234073,-75.75
1772057734.034106,19.38357825587073,-3.90123047319626,-2.644257742836054,0.7006578076607016,-0.39375898053109243,9.61514005370111,-0.03163710866743311,0.0021374804842091994,0.016362461737446838,1.3483767071423176,19.06440168234073,-75.75
1772057734.1313672,19.342225408266874,-3.8871054441337836,-2.68996400677311,0.6973119945909976,-0.4189399557696966,9.653561988807759,0.0010725487725566692,0.013091480036900053,-0.016362461737446838,1.3479402817002164,19.376901377593114,-75.375
1772057734.1929986,19.240222674991593,-3.891684319750174,-2.800457597694591,0.7017989685283662,-0.45241381241914647,9.679131357420097,-0.02182268802325535,0.004332850631289853,-0.011999138607461015,0.16087786518325473,19.062743265660743,-75.0
1772057734.2718127,19.373812044534816,-3.6833638302381635,-2.9262050245174307,0.6913905508183189,-0.46467365137205335,9.689457263188407,-0.026251513621937356,0.05123243488781043,0.03490658503988659,0.16087786518325473,19.062743265660743,-75.0
1772057734.3109658,19.373812044534816,-3.6833638302381635,-2.9262050245174307,0.6913905508183189,-0.46467365137205335,9.689457263188407,-0.026251513621937356,0.05123243488781043,0.03490658503988659,0.16087786518325473,19.062743265660743,-75.0
1772057734.3796332,19.67152117570597,-3.6345832657236756,-3.1346623050654796,0.6854254738819743,-0.47825423751445273,9.680843277338791,-0.0010847360700032911,-0.004364842287087236,0.03490658503988659,2.348899442480471,18.690798609452592,-75.5
1772057734.4545574,19.787698706207177,-3.6841872039515424,-3.1617512596493262,0.6838626397499485,-0.4985910361885393,9.677216079941621,0.01854867545489472,-0.0032465911491057348,0.001090830782496456,0.9712822307173696,20.563876509021654,-75.75
1772057734.5229068,19.854813458690057,-3.693296811978916,-3.059199857011797,0.6527166150863588,-0.5121669934146629,9.674802220592253,0.0360156616641478,-0.013039684022751909,0.037088246604879506,0.9712822307173696,20.563876509021654,-75.75
1772057734.6028826,20.053035812807483,-3.826109885919798,-2.926555459554928,0.6319332237493717,-0.4810603399529653,9.666505600745188,0.022965313756130097,-0.04141953765581349,0.038179077387375956,2.0333447691333775,20.877860050777183,-74.6875
1772057734.6292782,20.146675897263854,-3.887497596492543,-2.8913339492424135,0.6181021089803002,-0.460359209558293,9.66098429291628,0.024047003001771733,-0.034873035931273055,0.05672320068981571,2.0333447691333775,20.877860050777183,-74.6875
1772057734.6806777,20.259329830251794,-3.9505589664390968,-2.8428257160404833,0.6490483012553389,-0.4532169955705404,9.684070817891747,0.02402567523124014,-0.019601419869100627,0.039269908169872414,0.15991772921063196,19.75024259521599,-76.1875
