timestamp,yaw,pitch,roll,ax,ay,az,gx,gy,gz,mx,my,mz
1772306137.167897,-0.1474798271991703,1.8195301159125026,-9.26658891979255,-0.309544264474486,-1.5893210064737568,9.731715925064808,0.0,0.001090830782496456,0.001090830782496456,23.25,61.875,-43.0625
1772306137.1798766,-0.1474798271991703,1.8195301159125026,-9.26658891979255,-0.3063516013913504,-1.58954813739314,9.73783215237713,-0.002181661564992912,0.002181661564992912,0.0,23.25,61.875,-43.0625
1772306137.191538,-0.1474798271991703,1.8195301159125026,-9.26658891979255,-0.3042269197739072,-1.5896992904827707,9.738557321623425,0.0,0.0,0.001090830782496456,23.25,61.875,-43.0625
1772306137.2023969,-0.1474798271991703,1.8195301159125026,-9.26658891979255,-0.3042269197739072,-1.5896992904827707,9.738557321623425,0.0,0.0,0.001090830782496456,23.25,61.875,-43.0625
1772306137.2144952,-0.1474798271991703,1.8195301159125026,-9.26658891979255,-0.3042269197739072,-1.5896992904827707,9.738557321623425,0.0,0.0,0.001090830782496456,23.25,61.875,-43.0625
1772306137.2261424,-0.1474798271991703,1.8195301159125026,-9.26658891979255,-0.3028129678917475,-1.5931449928827488,9.739039913656162,0.001090830782496456,0.001090830782496456,0.001090830782496456,24.0,63.6875,-43.875
1772306137.2394936,-0.1474798271991703,1.8195301159125026,-9.26658891979255,-0.3018719987090477,-1.5954380693389163,9.739361073263042,0.0,0.003272492347489368,0.001090830782496456,24.0,63.6875,-43.875
1772306137.253997,-0.1474798271991703,1.8195301159125026,-9.26658891979255,-0.3018719987090477,-1.5954380693389163,9.739361073263042,0.0,0.003272492347489368,0.001090830782496456,24.0,63.6875,-43.875
1772306137.2705364,-0.1474798271991703,1.8195301159125026,-9.26658891979255,-0.3018719987090477,-1.5954380693389163,9.739361073263042,0.0,0.003272492347489368,0.001090830782496456,24.0,63.6875,-43.875
1772306137.2838593,-0.1474798271991703,1.8195301159125026,-9.26658891979255,-0.3045909059365948,-1.593618974397834,9.739574801393834,-0.001090830782496456,0.002181661564992912,-0.001090830782496456,24.0625,63.0,-43.0625
1772306137.309944,-7.378197271812481e-06,1.8196211291072968,-9.26705049559167,-0.3045909059365948,-1.593618974397834,9.739574801393834,-0.001090830782496456,0.002181661564992912,-0.001090830782496456,24.0625,63.0,-43.0625
1772306137.3315475,-7.378197271812481e-06,1.8196211291072968,-9.26705049559167,-0.3045909059365948,-1.593618974397834,9.739574801393834,-0.001090830782496456,0.002181661564992912,-0.001090830782496456,24.0625,63.0,-43.0625
1772306137.3434527,-7.378197271812481e-06,1.8196211291072968,-9.26705049559167,-0.3045909059365948,-1.593618974397834,9.739574801393834,-0.001090830782496456,0.002181661564992912,-0.001090830782496456,24.0625,63.0,-43.0625
1772306137.35628,-7.378197271812481e-06,1.8196211291072968,-9.26705049559167,-0.3023004249933537,-1.593191787918212,9.739717035077376,0.0,0.0,-0.002181661564992912,24.0625,63.0,-43.0625
1772306137.3696978,-7.378197271812481e-06,1.8196211291072968,-9.26705049559167,-0.30350663178335874,-1.5923892576760945,9.739811690004919,0.0010852115594848783,0.0021844621423521057,0.0,23.08776061785137,63.05963692928141,-44.25
1772306137.387619,-7.378197271812481e-06,1.8196211291072968,-9.26705049559167,-0.30350663178335874,-1.5923892576760945,9.739811690004919,0.0010852115594848783,0.0021844621423521057,0.0,23.08776061785137,63.05963692928141,-44.25
1772306137.4042754,-7.378197271812481e-06,1.8196211291072968,-9.26705049559167,-0.3043093489278943,-1.5918551827648153,9.739874681801833,-2.8078046764698056e-06,0.001090827168837818,0.001090830782496456,23.08776061785137,63.05963692928141,-44.25
1772306137.4673183,-7.378197271812481e-06,1.8196211291072968,-9.26705049559167,-0.30484354822064474,-1.591499761877367,9.739916602139017,-2.8078046764698056e-06,0.001090827168837818,-0.002181661564992912,23.52525916851965,63.06076305678502,-43.5
1772306137.4970894,-7.378197271812481e-06,1.8196211291072968,-9.26705049559167,-0.30484354822064474,-1.591499761877367,9.739916602139017,-2.8078046764698056e-06,0.001090827168837818,-0.002181661564992912,23.52525916851965,63.06076305678502,-43.5
1772306137.512733,-7.378197271812481e-06,1.8196211291072968,-9.26705049559167,-0.3018625615934771,-1.5879095222846313,9.739944499655131,-5.615609352939611e-06,0.002181654337675636,0.001090830782496456,23.52525916851965,63.06076305678502,-43.5
1772306137.5335689,-7.378197271812481e-06,1.8196211291072968,-9.26705049559167,-0.3018625615934771,-1.5879095222846313,9.739944499655131,-5.615609352939611e-06,0.002181654337675636,0.001090830782496456,23.52525916851965,63.06076305678502,-43.5
1772306137.5590782,-7.378197271812481e-06,1.8196211291072968,-9.26705049559167,-0.29987013795622236,-1.588865358567043,9.73661795343315,-2.8078046764698056e-06,0.001090827168837818,0.001090830782496456,23.523489539585402,63.748260779263745,-44.25
1772306137.605521,-7.378197271812481e-06,1.8196211291072968,-9.26705049559167,-0.29987013795622236,-1.588865358567043,9.73661795343315,-2.8078046764698056e-06,0.001090827168837818,0.001090830782496456,23.523489539585402,63.748260779263745,-44.25
1772306137.6624868,-7.378197271812481e-06,1.8196211291072968,-9.26705049559167,-0.29987013795622236,-1.588865358567043,9.73661795343315,-2.8078046764698056e-06,0.001090827168837818,0.001090830782496456,23.523489539585402,63.748260779263745,-44.25
1772306137.7098415,-7.378197271812481e-06,1.8196211291072968,-9.26705049559167,-0.2976618069032427,-1.589924773294185,9.738502174835169,-0.001090827168837818,-2.8078046764698056e-06,-0.001090830782496456,23.83775813328271,63.061567433573316,-43.0625
1772306137.7911463,-7.378197271812481e-06,1.8196211291072968,-9.26705049559167,-0.2976618069032427,-1.589924773294185,9.738502174835169,-0.001090827168837818,-2.8078046764698056e-06,-0.001090830782496456,23.83775813328271,63.061567433573316,-43.0625
1772306137.971379,-0.00011740083478726765,1.8196031793530059,-9.27402451134461,-0.3022550191698382,-1.5904083024155902,9.739336650108134,-2.8078046764698056e-06,0.001090827168837818,0.0,22.837761446040926,63.05899342785077,-43.875
1772306138.0425887,-0.00011740083478726765,1.8196031793530059,-9.27402451134461,-0.3034850250517026,-1.587191778541897,9.736213436349749,-0.001090827168837818,-2.8078046764698056e-06,0.002181661564992912,22.837761446040926,63.05899342785077,-43.875
1772306138.0623915,-0.00011740083478726765,1.8196031793530059,-9.27402451134461,-0.3043035802260174,-1.5850512178348801,9.730789860774806,0.0032780971158663935,-0.0021732309236462263,0.004363323129985824,22.837761446040926,63.05899342785077,-43.5
1772306138.0834835,22.081494694984844,1.821610080001788,-9.270115416949189,-0.30483970921398623,-1.5869717992217633,9.72718053181499,0.00545694364886556,-0.0010767881454554688,0.003272492347489368,22.837761446040926,63.05899342785077,-43.5
1772306138.1098073,22.081494694984844,1.821610080001788,-9.270115416949189,-0.295161195189207,-1.5882240936704028,9.72477856371108,0.006544963013026908,1.6846828058818835e-05,0.004363323129985824,22.837761446040926,63.05899342785077,-43.5
1772306138.1537004,22.081494694984844,1.821610080001788,-9.270115416949189,-0.2887633039051881,-1.5723319785080612,9.739905639306267,0.0010936349735142879,-0.0010880193641613482,0.006544984694978736,23.093552130727087,60.8096443829874,-44.5625
1772306138.2146614,22.081494694984844,1.821610080001788,-9.270115416949189,-0.2887633039051881,-1.5723319785080612,9.739905639306267,0.0010936349735142879,-0.0010880193641613482,0.006544984694978736,23.093552130727087,60.8096443829874,-44.5625
1772306138.25867,22.138167325280186,1.834477183265362,-9.27497622225265,-0.28450557872480203,-1.5617559533940815,9.749972539134356,-0.007649829205247075,0.005434481211453801,0.019634954084936207,23.09162162643518,61.55964189841873,-44.25
1772306138.3247273,22.258008535627983,1.851043693812177,-9.271542170671495,-0.27493024690755247,-1.5747711099039536,9.723220831442116,-0.0021619997049403474,-0.007641405791217666,0.032724923474893676,23.527189672811556,62.31076554135368,-43.5
1772306138.3588722,22.32837598115236,1.8649858140070776,-9.275928319718194,-0.2852834736755033,-1.583475602855835,9.705417868809088,-0.0032612502878075745,-0.004371732089380681,0.04036073895236887,23.527189672811556,62.31076554135368,-43.5
1772306138.3884718,22.363403169558215,1.8747127029398423,-9.274025113128904,-0.29222509245651673,-1.569197741925116,9.69357019604893,-0.004360500870674802,-0.0011020583875436972,0.03599741582238305,23.090656374289228,61.934640656134405,-44.6875
1772306138.4168549,22.363403169558215,1.8747127029398423,-9.274025113128904,-0.29222509245651673,-1.569197741925116,9.69357019604893,-0.004360500870674802,-0.0011020583875436972,0.03599741582238305,23.090656374289228,61.934640656134405,-44.6875
1772306138.439567,22.46270867321561,1.8896735226745534,-9.271183535513321,-0.29684466221231853,-1.5596959849698795,9.702411260710818,-0.005437289016130271,-0.006559002036409257,0.04799655442984406,23.090656374289228,61.934640656134405,-44.6875
1772306138.4603114,22.46270867321561,1.8896735226745534,-9.271183535513321,-0.29684466221231853,-1.5596959849698795,9.702411260710818,-0.005437289016130271,-0.006559002036409257,0.04799655442984406,23.090656374289228,61.934640656134405,-44.6875
1772306138.5539386,23.212797201428273,1.9925663726596772,-9.428965062881653,-0.27636546451358274,-1.6068340095133788,9.688224220238224,-0.05888501248450688,-0.007787411634394096,0.1930770485018727,22.407984912540268,60.05787723862181,-43.5
1772306138.6233203,23.390748487389427,2.0122817001379554,-9.554045665979887,-0.2627281768760247,-1.6415489389066142,9.668747568161383,-0.037026352037603474,-0.024093663073431967,0.07963064712224129,22.407984912540268,60.05787723862181,-43.5
1772306138.6763208,23.537379854029137,2.0533943878423537,-9.552446753475458,-0.3355283415266611,-1.730393401072143,9.647160344046416,0.0021619997049403474,0.007641405791217666,-0.001090830782496456,23.527189672811556,62.31076554135368,-42.6875
1772306138.765131,23.08028647728659,2.0334809727261898,-9.650010623640018,-0.3385865453987141,-1.8442946699714102,9.62134934702537,0.044693028070909364,0.01211421884895126,-0.15707963267948966,23.09451738287304,60.43464562527173,-43.0625
1772306138.823009,22.77480843049971,2.0036578894975974,-9.706358856160506,-0.3013132909329788,-1.7429657436020067,9.592741361673179,-0.08076613536882205,0.01724545715534632,-0.04690572364734761,24.588881776217654,62.62599938719694,-42.25
1772306138.837024,22.77480843049971,2.0036578894975974,-9.706358856160506,-0.3013132909329788,-1.7429657436020067,9.592741361673179,-0.08076613536882205,0.01724545715534632,-0.04690572364734761,24.588881776217654,62.62599938719694,-42.25
1772306138.8524225,22.82630139449574,1.9847319679063165,-9.76732777682845,-0.26310457307106233,-1.5380841992732615,9.638655909472956,-0.022809097381917734,-0.03823791480752949,0.04254240051736178,24.588881776217654,62.62599938719694,-42.25
1772306138.8670814,22.82630139449574,1.9847319679063165,-9.76732777682845,-0.26310457307106233,-1.5380841992732615,9.638655909472956,-0.022809097381917734,-0.03823791480752949,0.04254240051736178,24.588881776217654,62.62599938719694,-42.25
1772306138.8820827,22.91785723824082,2.016176112287555,-9.81162676372367,-0.21426139377289027,-1.401677547842552,9.766219767646863,-0.03488681477007489,-0.0077256399315117595,0.12326387842209953,24.588881776217654,62.62599938719694,-42.25
1772306138.8955653,22.91785723824082,2.016176112287555,-9.81162676372367,-0.21426139377289027,-1.401677547842552,9.766219767646863,-0.03488681477007489,-0.0077256399315117595,0.12326387842209953,24.588881776217654,62.62599938719694,-42.25
1772306138.911047,23.151424131408483,2.048359585347482,-9.761949941860646,-0.08111964368048015,-1.421030455627749,10.112030803450846,0.06546647695832788,-0.00637649473243872,0.16580627893946132,22.8519184775149,57.55901164802097,-45.0625
1772306138.9252825,23.279386799853693,2.0554173257338593,-9.810439807650905,0.007811896508951518,-1.5610234233520301,10.081245471645103,-0.058974862234153914,0.02711905776841608,0.07853981633974483,22.8519184775149,57.55901164802097,-45.0625
1772306138.939958,23.279386799853693,2.0554173257338593,-9.810439807650905,0.007811896508951518,-1.5610234233520301,10.081245471645103,-0.058974862234153914,0.02711905776841608,0.07853981633974483,22.8519184775149,57.55901164802097,-45.0625
1772306138.9584377,23.46274616931172,2.0130795064656355,-9.769134526330385,0.010128132436479455,-1.6543335552721357,9.358284718685999,0.029713459393532777,-0.10137111597565239,0.1636246173744684,22.8519184775149,57.55901164802097,-45.0625
1772306138.9799206,23.632457179590016,2.0347171212525774,-9.800279037134057,-0.1323678030796193,-1.6398633358068324,8.877162413592488,0.051569312035759714,-0.11658654024585244,0.18216874067690814,23.855776173340494,56.061590622880836,-43.0625
1772306138.9941645,23.693305694684124,2.0898890084545427,-9.832263276439537,-0.22719725638168503,-1.6302335663956158,9.667557980871093,-0.06786714006076817,0.09145539829243558,0.039269908169872414,23.855776173340494,56.061590622880836,-43.0625
1772306139.009353,23.693305694684124,2.0898890084545427,-9.832263276439537,-0.22719725638168503,-1.6302335663956158,9.667557980871093,-0.06786714006076817,0.09145539829243558,0.039269908169872414,23.855776173340494,56.061590622880836,-43.0625
1772306139.027922,23.802710413431324,2.0496242934401385,-9.832776348182792,-0.24312937601189671,-1.757508542741467,10.193557401597998,-0.007503823362070645,-0.051288531568112736,0.061086523819801536,23.855776173340494,56.061590622880836,-43.0625
1772306139.0486295,23.98481599053249,2.0286987254130793,-9.758662466241512,-0.17670860589281212,-1.8754615862591435,10.543604140293223,0.11029427965370782,-0.046621979987702726,0.14508049407202864,25.348049187035546,59.065441693189996,-42.6875
1772306139.0690205,23.79989407056092,2.0982624673080927,-9.758575959360979,-0.2095297431067323,-1.9207050505841712,10.612645860957961,0.027343682142533663,-0.028291311272871524,-0.10253809355466686,25.348049187035546,59.065441693189996,-42.6875
1772306139.1903977,23.40310755859357,2.121428165606747,-9.660659492049952,-0.1913167391439652,-1.917259740392008,10.658592354813791,-0.009977489386099141,0.0621518783816674,-0.1308996938995747,24.598051671604207,59.06351118889809,-40.6875
1772306139.2435455,23.017481085174,2.1083799869834063,-9.7284397168664,-0.21970764044572452,-1.7712309220776432,10.36803850931622,-0.01631186704839081,-0.01967700610922777,-0.10690141668465268,24.598051671604207,59.06351118889809,-40.6875
1772306139.2638407,22.78349151893763,2.0815441878157324,-9.69834229254662,-0.2386014681148974,-1.674050374738218,10.134536830348875,0.01302534651849501,0.02512271853938745,-0.16798794050445423,23.84837590688819,58.93658109870096,-40.25
1772306139.3037148,22.78349151893763,2.0815441878157324,-9.69834229254662,-0.2386014681148974,-1.674050374738218,10.134536830348875,0.01302534651849501,0.02512271853938745,-0.16798794050445423,23.84837590688819,58.93658109870096,-40.25
1772306139.3632994,22.292440046502648,2.032989280250225,-9.672192699271188,-0.25117509937084775,-1.6093778060616748,10.019285411868601,-0.008765926616173121,0.015249117926317692,-0.13962634015954636,23.84837590688819,58.93658109870096,-40.25
1772306139.4098372,21.874776498908183,1.9894975373246178,-9.674258787998005,-0.34647227510173295,-1.5832883059298357,9.865649311044335,0.02400100551910846,-0.0010290554659554822,-0.17671458676442586,23.536681318913423,58.62327775714961,-39.875
1772306139.4437757,21.541802134985694,1.9574137894789172,-9.659422099519269,-0.2660349334298352,-1.5722459918053366,9.843688883149149,0.007621751158482376,0.005473790476924378,-0.12435470920459599,23.536681318913423,58.62327775714961,-39.875
1772306139.458567,21.541802134985694,1.9574137894789172,-9.659422099519269,-0.2660349334298352,-1.5722459918053366,9.843688883149149,0.007621751158482376,0.005473790476924378,-0.12435470920459599,23.536681318913423,58.62327775714961,-39.875
1772306139.5160303,21.293402841046344,1.9264483571215232,-9.686508404910024,-0.33273897621210224,-1.6387996409936,9.778897788089166,-0.006553386427056317,0.0032556346784546352,-0.1090830782496456,23.85094991261073,57.93658441145918,-40.25
1772306139.5520494,20.825707600740405,1.8868456580262567,-9.69439553084434,-0.35717971250956176,-1.6362072802945284,9.785956713700493,0.0075768262836588595,0.022927025178329466,-0.11344640137963143,23.85094991261073,57.93658441145918,-40.25
1772306139.6322505,20.53733468126957,1.8385418128572013,-9.724876436263813,-0.37335003579115855,-1.6712782000913666,9.780619014719507,-0.02073975523130089,0.005400787555336163,-0.09599310885968812,24.60400405983758,56.751018849651466,-39.875
1772306139.6627774,20.53733468126957,1.8385418128572013,-9.724876436263813,-0.37335003579115855,-1.6712782000913666,9.780619014719507,-0.02073975523130089,0.005400787555336163,-0.09599310885968812,24.60400405983758,56.751018849651466,-39.875
1772306139.7462394,19.616744200510674,1.7613768236074465,-9.746109269296749,-0.38143813782032354,-1.6321147133323197,9.796964244937847,-0.005490637304983197,0.014166714171509285,-0.09708393964218458,24.60400405983758,56.751018849651466,-38.6875
1772306139.7788007,19.616744200510674,1.7613768236074465,-9.746109269296749,-0.38143813782032354,-1.6321147133323197,9.796964244937847,-0.005490637304983197,0.014166714171509285,-0.09708393964218458,24.60400405983758,56.751018849651466,-38.6875
1772306139.8134768,19.24828047442629,1.7368725933699691,-9.750469732035574,-0.3795962103606197,-1.6150072014725843,9.818050409161659,0.00651688496626221,0.010925118516436998,-0.12762720155208535,24.60400405983758,56.751018849651466,-38.6875
1772306139.8468225,19.24828047442629,1.7368725933699691,-9.750469732035574,-0.3795962103606197,-1.6150072014725843,9.818050409161659,0.00651688496626221,0.010925118516436998,-0.12762720155208535,24.60400405983758,56.751018849651466,-38.6875
1772306139.8834682,18.844679500640375,1.7035395741527342,-9.763102760280061,-0.37490478287261114,-1.6504451418575057,9.82204768078276,0.0021423450722050587,0.015277195973082391,-0.11999138607461016,23.543277208577436,56.06078624609254,-38.6875
1772306139.9402158,19.30915935799438,1.6820756119837286,-9.773525751310352,-0.3516690348479959,-1.6907025364247406,9.824707820394153,-0.00983990695695212,0.008701347108614315,-0.10362892433716332,23.543277208577436,56.06078624609254,-38.6875
1772306139.9736319,19.66154593404139,1.649993188949188,-9.77931981041696,-0.3361456317411867,-1.7409090871850839,9.826478113589829,0.0010739803407789992,0.006547770817703378,-0.10144726277217041,24.230774931056164,56.06255587502679,-38.6875
1772306140.0155115,20.05441758480526,1.6327044923759146,-9.767983491404136,-0.3225301521123473,-1.7508966711550833,9.760753989789693,0.01850475260477233,0.015319313043229438,-0.12217304763960307,24.230774931056164,56.06255587502679,-38.6875
1772306140.0393124,20.24849863476998,1.61920865094395,-9.756483952219709,-0.2836302173192625,-1.6537676842894344,9.770537106904381,0.0010571335127201804,0.013092733830730285,-0.09926560120717749,23.108674414347014,54.934663845441925,-37.0625
1772306140.0859451,20.24849863476998,1.61920865094395,-9.756483952219709,-0.2836302173192625,-1.6537676842894344,9.770537106904381,0.0010571335127201804,0.013092733830730285,-0.09926560120717749,23.108674414347014,54.934663845441925,-37.0625
1772306140.1232204,20.100064358653242,1.5996027999389604,-9.759609532073553,-0.2577427452552086,-1.5891294285322208,9.723525874742517,-0.008732232960055484,0.0021591919002638773,-0.08290313946973066,23.108674414347014,54.934663845441925,-37.0625
1772306140.142035,20.20033024685773,1.5906248916942378,-9.739769618535934,-0.2639220158223262,-1.5495187643649364,9.68889531318135,0.020683599137771496,0.016415755821420193,-0.1341721862470641,23.547942593949543,54.24829225046681,-36.25
1772306140.1578736,20.20033024685773,1.5906248916942378,-9.739769618535934,-0.2639220158223262,-1.5495187643649364,9.68889531318135,0.020683599137771496,0.016415755821420193,-0.1341721862470641,23.547942593949543,54.24829225046681,-36.25
1772306140.188182,19.9119244433534,1.5498367949938037,-9.732516699347894,-0.267750110247421,-1.633546630492232,9.665849061311114,0.002164807509616817,0.006550578622379848,-0.10035643198967395,23.547942593949543,54.24829225046681,-36.25
1772306140.241122,19.616443753940146,1.5096857259473908,-9.732120938489556,-0.27029766432470487,-1.6894662367471793,9.683963155208167,-0.0010992505828672275,0.003269673701836984,-0.09708393964218458,24.23544031642827,54.25006187940106,-36.6875
1772306140.3487678,19.616443753940146,1.5096857259473908,-9.732120938489556,-0.2786832343566398,-1.7266973307202695,9.716088552592884,0.0021760387283226964,0.0021872699470285753,-0.11126473981463851,23.547942593949543,54.24829225046681,-37.0625
1772306140.371927,18.94353662724143,1.4604236987929573,-9.703583571214075,-0.2786832343566398,-1.7266973307202695,9.716088552592884,0.0021760387283226964,0.0021872699470285753,-0.11126473981463851,23.547942593949543,54.24829225046681,-37.0625
1772306140.4289136,18.650966125658584,1.465535516665489,-9.716400278290413,-0.3310951463007607,-1.751594752574271,9.760883427639447,0.0065084615522328,0.014197600022950452,-0.09381144729469522,23.547942593949543,54.24829225046681,-37.0625
1772306140.4612615,18.99510637265589,1.4475487029499616,-9.72746642070842,-0.3660694019236035,-1.7313676018121795,9.80741947512799,-0.005487829500306728,0.013075887002671467,-0.10471975511965978,23.861567686216212,53.811598076586826,-36.25
1772306140.488933,18.99510637265589,1.4475487029499616,-9.72746642070842,-0.3660694019236035,-1.7313676018121795,9.80741947512799,-0.005487829500306728,0.013075887002671467,-0.10471975511965978,23.861567686216212,53.811598076586826,-36.25
1772306140.521639,19.507161745090812,1.4507476341091177,-9.734735132411942,-0.3457633565140719,-1.7545908314387875,9.821663136353306,0.005409210969365573,0.017467273724787437,-0.09708393964218458,23.861567686216212,53.811598076586826,-36.25
1772306140.5585246,19.97353274227377,1.407448272867864,-9.74301806194683,-0.3189125593077121,-1.753285686859248,9.787655681591481,-0.0022013089704109247,0.007630174572511786,-0.10144726277217041,24.92502941855656,53.439334199951354,-36.0
1772306140.5928574,19.97353274227377,1.407448272867864,-9.74301806194683,-0.3189125593077121,-1.753285686859248,9.787655681591481,-0.0022013089704109247,0.007630174572511786,-0.10144726277217041,24.92502941855656,53.439334199951354,-36.0
1772306140.6788797,20.727746678530124,1.3492856795877406,-9.72745218924181,-0.2976985530841646,-1.7524085173843074,9.74829854179905,0.019634889039080724,5.0540484176456504e-05,-0.09053895494720585,23.552929730036965,52.31079866893585,-36.6875
1772306140.7410722,21.014956506060614,1.3271863238134358,-9.704012712453459,-0.28401999608890666,-1.5812246389829319,9.722106804915246,0.01851036821412527,0.013137658705553803,-0.11780972450961724,23.552929730036965,52.31079866893585,-36.6875
1772306140.765278,21.014956506060614,1.3271863238134358,-9.704012712453459,-0.28401999608890666,-1.5812246389829319,9.722106804915246,0.01851036821412527,0.013137658705553803,-0.11780972450961724,23.552929730036965,52.31079866893585,-36.6875
1772306140.8074408,21.188318584602914,1.2948375328914206,-9.717498901265612,-0.3017935591123061,-1.5922826955503846,9.72652793819861,-0.008749079788114303,0.008704154913290785,-0.05672320068981571,23.864302567296413,52.74910159639243,-34.6875
1772306140.8352654,21.188318584602914,1.2948375328914206,-9.717498901265612,-0.3017935591123061,-1.5922826955503846,9.72652793819861,-0.008749079788114303,0.008704154913290785,-0.05672320068981571,23.864302567296413,52.74910159639243,-34.6875
1772306140.8812773,21.37305009428377,1.3092540500482779,-9.708635837379214,-0.3315824986434745,-1.7308049633580767,9.72625981481595,-0.0033202141860134405,0.018535638456213498,-0.09272061651219876,24.24219708144994,51.625070575391376,-35.5
1772306140.954675,21.44299818512321,1.3229837669577316,-9.749002345884358,-0.38299007754230485,-1.7677517903959468,9.704095166589385,-0.012041215927363043,0.016331521681126098,-0.10471975511965978,24.24219708144994,51.625070575391376,-35.5
1772306141.0135946,21.592339989782612,1.3453073934312447,-9.760274622663957,-0.3703698382783697,-1.7922189463530682,9.752901963229018,0.008678884671202557,0.018566524307654663,-0.09817477042468103,23.554699358971213,51.62330094645713,-34.25
1772306141.0524552,21.90100451264382,1.3276251620256572,-9.75069968382107,-0.36203148238227095,-1.7850858609460802,9.7418958889899,0.0021619997049403474,0.007641405791217666,-0.09599310885968812,23.554699358971213,51.62330094645713,-34.25
1772306141.0972216,21.90100451264382,1.3276251620256572,-9.75069968382107,-0.3230313934212249,-1.780252768922743,9.734571469529673,0.03385214369476646,-0.01409371124992107,-0.044724062082354694,23.868163575880224,51.24910656552976,-34.25
1772306141.1429737,22.23264783241232,1.2829044567298222,-9.739115702383868,-0.3230313934212249,-1.780252768922743,9.734571469529673,0.03385214369476646,-0.01409371124992107,-0.044724062082354694,23.868163575880224,51.24910656552976,-34.25
1772306141.172614,22.457081184394593,1.251092227515272,-9.73230010522747,-0.29704282853047936,-1.79041680267348,9.622653575563797,-0.012038408122686573,0.015240694512288284,-0.07963064712224129,23.868163575880224,51.24910656552976,-34.25
1772306141.203447,22.795568747047454,1.237274746625398,-9.730323594205593,-0.24629672264924915,-1.797094750228127,9.5481734673343,-0.01968823732793365,0.020675175723742084,-0.09490227807719166,23.86896795266852,50.9366076007667,-34.0
1772306141.2645788,23.105120299238248,1.2071371101163038,-9.730821272225862,-0.22309489880774055,-1.5941684419402826,9.558819798036641,-0.008757503202143711,0.011976636419804239,-0.07526732399225546,23.86896795266852,50.9366076007667,-34.0
1772306141.3203976,23.20812094230485,1.1787209172522222,-9.723127954206118,-0.20765434422257123,-1.4591232506101153,9.652877716582047,0.00651688496626221,0.010925118516436998,-0.10471975511965978,24.933555812512477,50.12684517346295,-33.0625
1772306141.3596325,23.20812094230485,1.1787209172522222,-9.723127954206118,-0.20765434422257123,-1.4591232506101153,9.652877716582047,0.00651688496626221,0.010925118516436998,-0.10471975511965978,24.933555812512477,50.12684517346295,-33.0625
1772306141.417262,23.337565239454324,1.1747659351959758,-9.753484933965046,-0.23072650984604204,-1.4094794952095697,9.71547221067822,-0.016396101188684904,0.01304780895590677,-0.11017390903214205,24.933555812512477,50.12684517346295,-33.0625
1772306141.4459982,23.337565239454324,1.1747659351959758,-9.753484933965046,-0.23072650984604204,-1.4094794952095697,9.71547221067822,-0.016396101188684904,0.01304780895590677,-0.11017390903214205,24.933555812512477,50.12684517346295,-33.0625
1772306141.4745047,23.398592658428363,1.2171867918849688,-9.75957608500802,-0.24923645155435958,-1.4500429546512759,9.723677030199715,0.0042874979490865875,0.029463564777326964,-0.12762720155208535,23.87282896125233,49.43661256990402,-33.0625
1772306141.5341923,23.529551141859496,1.1968618069446477,-9.779055325312708,-0.25820951036587475,-1.477028873449522,9.719101910815473,-0.010930734125789938,0.008698539303937845,-0.10362892433716332,23.87282896125233,49.43661256990402,-33.0625
1772306141.6193123,23.904933192832473,1.1711304441490429,-9.773007127472528,-0.2542059512487245,-1.4715461655668467,9.709366996558053,0.013053424565259708,0.014214446851009272,-0.11126473981463851,22.875888905806065,48.246542498081865,-31.5625
1772306141.651543,23.904933192832473,1.1711304441490429,-9.773007127472528,-0.2542059512487245,-1.4715461655668467,9.709366996558053,0.013053424565259708,0.014214446851009272,-0.11126473981463851,22.875888905806065,48.246542498081865,-31.5625
1772306141.7194993,23.019050244075746,1.1297461946859415,-9.774616997303875,-0.2597694101366679,-1.4788755618826308,9.666256846149793,0.0054148265787185125,0.015285619387111801,-0.12435470920459599,23.12588807761651,48.247185999512496,-31.0625
1772306141.7686722,22.76875338342309,1.127620266398639,-9.7661508657441,-0.26517602495815823,-1.5129421546095279,9.613987185609345,0.01957311733619839,0.02404873819860845,-0.15489797111449674,23.12588807761651,48.247185999512496,-31.0625
1772306141.7850964,22.632660557821094,1.127012756314824,-9.75097165358729,-0.2420821444132479,-1.5087834038209003,9.615998539190556,0.015221039879552995,0.0196741983045513,-0.12762720155208535,23.12588807761651,48.247185999512496,-31.0625
1772306141.8068736,22.632660557821094,1.127012756314824,-9.75097165358729,-0.2420821444132479,-1.5087834038209003,9.615998539190556,0.015221039879552995,0.0196741983045513,-0.12762720155208535,23.12588807761651,48.247185999512496,-31.0625
1772306141.8274567,22.452299140834604,1.1447016426252974,-9.739126429021496,-0.22643789411248935,-1.6130590216520977,9.67754908326231,0.016289404610979052,0.028403623459930315,-0.11126473981463851,24.253780107201376,47.12508548280335,-31.0625
1772306141.8509102,22.286576403417808,1.151216737011997,-9.736476212631208,-0.22969997424517746,-1.5687543005542088,9.73858095302135,0.0032050941942781785,0.026188275466137043,-0.0916297857297023,24.253780107201376,47.12508548280335,-31.0625
1772306141.88184,22.05740479796058,1.1563899172820256,-9.755444846331805,-0.2717193081959116,-1.653106748896138,9.779196980575334,-0.0033061751626310915,0.013081502612024407,-0.14835298641951802,24.253780107201376,47.12508548280335,-31.0625
1772306141.8990228,21.91450283812055,1.152404706464326,-9.762324429307778,-0.2998463019502758,-1.6456854490994144,9.689147583445576,0.0054120187740420425,0.016376446555949616,-0.11126473981463851,22.440481734787348,47.4329190621943,-30.75
1772306141.9248013,21.721772216132884,1.1540165803291473,-9.746742305652779,-0.2616977914565553,-1.6406002812625333,9.6292207155734,0.01194013495901013,0.022938256397035346,-0.11671889372712078,22.440481734787348,47.4329190621943,-30.75
1772306141.94416,21.721772216132884,1.1540165803291473,-9.746742305652779,-0.2616977914565553,-1.6406002812625333,9.6292207155734,0.01194013495901013,0.022938256397035346,-0.11671889372712078,22.440481734787348,47.4329190621943,-30.75
1772306141.9658976,22.237354137695547,1.1470504929331033,-9.737184177414976,-0.23637926656318622,-1.610455353865951,9.669622735407108,0.0010487100986907708,0.01636521533724374,-0.10799224746714914,22.440481734787348,47.4329190621943,-30.75
1772306142.0172465,22.726745415808292,1.1212971222377108,-9.753011000178088,-0.27974188233701935,-1.590549227484618,9.709890275115585,-0.016379254360626087,0.006502845942879861,-0.1090830782496456,23.12701420512012,47.80968744884422,-30.75
1772306142.0494475,22.462193840307453,1.1069288131705552,-9.76067864918586,-0.32175575249183413,-1.6643089803606517,9.736687872973684,0.009786558668099195,0.012024369099304225,-0.1189005552921137,23.12701420512012,47.80968744884422,-30.75
1772306142.0939415,179.5317505261596,52.23657141332446,168.80039124217657,-0.35862292379636723,-1.615576895256433,9.759699147969716,-3.369365611763767e-05,0.013089926026053815,-0.12217304763960307,23.13264484263818,45.62219469550282,-30.375
1772306142.1564336,21.77136552725712,1.0728671629877375,-9.748154612461008,-0.35451540379983243,-1.5504540272602132,9.763144898041903,0.003227556631689937,0.017461658115434497,-0.1189005552921137,23.13264484263818,45.62219469550282,-30.375
1772306142.1886194,21.42905052344447,1.0686841923657953,-9.732524256282213,-0.3516527400759855,-1.557291995465427,9.765438006223393,0.003252826873778165,0.007644213595894135,-0.10581058590215622,23.57014339330646,45.62332082300643,-29.5625
1772306142.2311852,21.20852585676077,1.0585680844733234,-9.704487234624649,-0.34974766934581464,-1.5618425869208867,9.766964044102478,0.013056232369936178,0.013123619682171454,-0.13853550937704992,23.57014339330646,45.62332082300643,-29.5625
1772306142.298197,20.92293148096893,1.049359418151079,-9.711078789227793,-0.3550839639406946,-1.598339181632143,9.767979605264049,0.005403595360012633,0.019648928062463072,-0.12326387842209953,23.13361009478413,45.24719593778715,-29.5625
1772306142.3472047,20.430634241138527,1.05716881288703,-9.714057023056428,-0.35528149742082055,-1.6259637480079039,9.768655449872513,0.004343654042615983,0.007647021400570605,-0.11235557059713497,23.13361009478413,45.24719593778715,-29.5625
1772306142.4007156,20.14089881842581,1.031348304339615,-9.70999879964381,-0.35541295374525084,-1.6443475883443468,9.75906988178781,0.009783750863422725,0.013115196268142044,-0.13526301702956053,23.887307743441625,43.81163120416899,-29.0625
1772306142.4393988,19.892111184895057,1.0134691488922953,-9.689914653137649,-0.32223885760986287,-1.5829035115935175,9.792832133793082,0.0010683647314260595,0.008729425155379012,-0.11344640137963143,23.887307743441625,43.81163120416899,-29.0625
1772306142.4618511,19.892111184895057,1.0134691488922953,-9.689914653137649,-0.32223885760986287,-1.5829035115935175,9.792832133793082,0.0010683647314260595,0.008729425155379012,-0.11344640137963143,23.887307743441625,43.81163120416899,-29.0625
1772306142.4969208,19.679559186417773,1.0023825761591945,-9.690707613873114,-0.30016186721069743,-1.542013164891151,9.745053189499817,-0.01529123499646474,0.007596480916394148,-0.08944812416470939,23.13650585122199,44.12219966464014,-27.1875
1772306142.521051,19.679559186417773,1.0023825761591945,-9.690707613873114,-0.30016186721069743,-1.542013164891151,9.745053189499817,-0.01529123499646474,0.007596480916394148,-0.08944812416470939,23.13650585122199,44.12219966464014,-27.1875
1772306142.5657341,19.104853468818792,0.9662641017491628,-9.643313037380464,-0.2785988583944276,-1.5850309884037086,9.693186165554511,0.01631467485306728,0.018586178940389952,-0.11017390903214205,23.13650585122199,44.12219966464014,-27.1875
1772306142.6031067,18.92781973581779,0.9582651559189045,-9.643746661379863,-0.2836624833354911,-1.6327849563533687,9.598902383694233,0.0010543257080437105,0.014183560999568103,-0.11780972450961724,23.88907737237587,43.124133481690265,-27.1875
1772306142.640437,18.472483170447692,0.9672647507867823,-9.633092256480301,-0.2810249362487961,-1.635437741103854,9.662826671048759,0.01848790577671351,0.021864276056256345,-0.11017390903214205,23.88907737237587,43.124133481690265,-27.1875
1772306142.6608357,18.472483170447692,0.9672647507867823,-9.633092256480301,-0.2810249362487961,-1.635437741103854,9.662826671048759,0.01848790577671351,0.021864276056256345,-0.11017390903214205,23.88907737237587,43.124133481690265,-27.1875
1772306142.6867943,18.21725581540019,0.9574046263667532,-9.619131045500612,-0.2794160538494441,-1.5803364290836124,9.661881118006965,0.019595579773610147,0.015322120847905909,-0.10799224746714914,23.577543659758764,42.748330347186304,-28.0
1772306142.712245,18.21725581540019,0.9574046263667532,-9.619131045500612,-0.2794160538494441,-1.5803364290836124,9.661881118006965,0.019595579773610147,0.015322120847905909,-0.10799224746714914,23.577543659758764,42.748330347186304,-28.0
1772306142.7443383,17.974663882712488,0.9625177347581836,-9.602680382802946,-0.24825667562646592,-1.5368994271744865,9.661251863020171,0.00650565374755633,0.01528842719178827,-0.09817477042468103,23.577543659758764,42.748330347186304,-28.0
1772306142.7753465,17.576204808563634,0.9685272941515356,-9.58567181544881,-0.25765219413412477,-1.4980347787798431,9.660833100855697,0.014158290757479874,0.008763118811496651,-0.15926129424448257,22.767942107812672,41.621242694389736,-27.1875
1772306142.7988985,17.44242062246507,0.9551946686138675,-9.572957473932894,-0.23377307010416376,-1.4821285982670016,9.66724464272776,0.016331521681126098,0.012041215927363043,-0.12980886311707826,22.767942107812672,41.621242694389736,-27.1875
1772306142.8188922,17.44242062246507,0.9551946686138675,-9.572957473932894,-0.23377307010416376,-1.4821285982670016,9.66724464272776,0.016331521681126098,0.012041215927363043,-0.12980886311707826,22.767942107812672,41.621242694389736,-27.1875
1772306142.8420165,17.131738512775982,0.9329910858652001,-9.553589086384337,-0.2848096233350114,-1.4616801176756087,9.67485656392932,0.005406403164689103,0.018558100893625255,-0.1407171709420428,23.45431370278779,42.060510873992264,-28.0
1772306142.8665032,16.977686049147135,0.9121637502730731,-9.54911504100986,-0.2853056524634002,-1.4546759801513065,9.679922212458226,0.010877385836937013,0.012027176903980695,-0.14835298641951802,23.45431370278779,42.060510873992264,-28.0
1772306142.8884108,16.71685301898846,0.8873134639677047,-9.53014659214179,-0.2856357543073344,-1.450014804870226,9.683293344967213,0.011971020810451297,0.010939157539819347,-0.1439896632895322,23.45431370278779,42.060510873992264,-28.0
1772306142.9140215,16.39998030242135,0.8668804879385077,-9.524959402934932,-0.2624397290165818,-1.4468525724326662,9.688881907701246,0.005445712430159681,0.003286520529895803,-0.14289883250703572,23.081406324721684,41.24704831346236,-28.375
1772306142.9507177,16.39998030242135,0.8668804879385077,-9.524959402934932,-0.2624397290165818,-1.4468525724326662,9.688881907701246,0.005445712430159681,0.003286520529895803,-0.14289883250703572,23.081406324721684,41.24704831346236,-28.375
1772306142.9890862,15.926784693830887,0.8403655304324501,-9.519309827570424,-0.23637157425461103,-1.5826283602966087,9.739669680062988,0.011971020810451297,0.010939157539819347,-0.12544553998709243,23.081406324721684,41.24704831346236,-28.375
1772306143.017661,15.835680920510372,0.8258177289941826,-9.520809045331632,-0.22952581245828627,-1.585281921565041,9.733089952357195,-0.003286520529895803,0.00544571243015968,-0.09490227807719166,22.77148136568117,40.24624724943228,-27.5625
1772306143.040863,15.661010885261803,0.8024446571254702,-9.509428592699546,-0.2250561378217739,-1.5535968306892305,9.728711217069366,-1.4039023382349028e-05,0.00545413584418909,-0.10581058590215622,22.77148136568117,40.24624724943228,-27.5625
1772306143.0642297,15.471776729173305,0.7737134376825002,-9.519309224912998,-0.2922426290551751,-1.5661425799849868,9.719106994234354,-0.012010330075921874,0.004332422823910104,-0.11235557059713497,22.77148136568117,40.24624724943228,-27.5625
1772306143.1092212,15.311235756131564,0.7464364817542375,-9.522267902248863,-0.3369803194587518,-1.564456334118791,9.682609485857977,0.0010711725361025293,0.0076385979865411955,-0.08072147790473774,22.77260749318478,39.808748698764,-26.375
1772306143.1277668,15.311235756131564,0.7464364817542375,-9.522267902248863,-0.3369803194587518,-1.564456334118791,9.682609485857977,0.0010711725361025293,0.0076385979865411955,-0.08072147790473774,22.77260749318478,39.808748698764,-26.375
1772306143.1521332,15.154432059216026,0.7593725420389746,-9.505768399600505,-0.3065409414056694,-1.563179170271249,9.688426807103255,0.013042193346553828,0.018577755526360543,-0.11126473981463851,22.77260749318478,39.808748698764,-26.375
1772306143.1916285,14.843306487099143,0.7534757739785893,-9.498055327287029,-0.2863097063515072,-1.5522939301202456,9.715713951359488,0.0021563840955874077,0.0098230601288933,-0.10253809355466686,23.08607171009379,39.43455431783663,-26.375
1772306143.220961,14.843306487099143,0.7534757739785893,-9.498055327287029,-0.2863097063515072,-1.5522939301202456,9.715713951359488,0.0021563840955874077,0.0098230601288933,-0.10253809355466686,23.08607171009379,39.43455431783663,-26.375
1772306143.24428,14.438150482150114,0.7685254101337707,-9.494159484107476,-0.2895715485495313,-1.5450929760792385,9.733873241044636,-0.0022462338452344417,0.025083409273916873,-0.11126473981463851,23.08607171009379,39.43455431783663,-26.375
1772306143.2621078,14.438150482150114,0.7685254101337707,-9.494159484107476,-0.2895715485495313,-1.5450929760792385,9.733873241044636,-0.0022462338452344417,0.025083409273916873,-0.11126473981463851,23.08607171009379,39.43455431783663,-26.375
1772306143.2866087,14.297634184225831,0.7629800188664477,-9.487603200281795,-0.29174226809515147,-1.5403008216048755,9.735922710355586,0.007596480916394148,0.01529123499646474,-0.07963064712224129,23.465735853181567,37.62302557435685,-26.75
1772306143.3025348,14.192271157007296,0.753372286374094,-9.4812992907393,-0.29324713006097586,-1.5136959919536483,9.737286609287953,-0.0010964427781907577,0.002178846532999166,-0.09708393964218458,23.465735853181567,37.62302557435685,-26.75
1772306143.3202345,14.035925695581433,0.7604439958810545,-9.47269596713022,-0.3143192026434608,-1.4960424370362402,9.724813821962416,-0.002198501165734455,0.006539347403673968,-0.0916297857297023,23.465735853181567,37.62302557435685,-26.75
1772306143.338839,14.035925695581433,0.7604439958810545,-9.47269596713022,-0.3143192026434608,-1.4960424370362402,9.724813821962416,-0.002198501165734455,0.006539347403673968,-0.0916297857297023,23.465735853181567,37.62302557435685,-26.75
1772306143.3745344,13.536401942953331,0.7383488863605037,-9.459918476873682,-0.330766454675795,-1.5611814971560394,9.710989430877522,-2.8078046764698055e-05,0.01090827168837818,-0.1090830782496456,23.46396622424732,38.310523296835576,-26.0
1772306143.4354436,13.536401942953331,0.7383488863605037,-9.459918476873682,-0.330766454675795,-1.5611814971560394,9.710989430877522,-2.8078046764698055e-05,0.01090827168837818,-0.1090830782496456,23.46396622424732,38.310523296835576,-26.0
1772306143.4724388,13.21988122233454,0.7129238132645314,-9.468399179361121,-0.30215058983817544,-1.685685315856337,9.738318065469727,0.007616135549129437,0.007655444814600014,-0.09599310885968812,24.587836369890713,38.750917603941716,-26.375
1772306143.5024743,13.114633719689024,0.7112117231297667,-9.468671092578608,-0.2932596819072334,-1.697403144423529,9.7489160264805,0.008721001741349604,0.0022041167750873943,-0.09490227807719166,24.587836369890713,38.750917603941716,-26.375
1772306143.520271,13.114633719689024,0.7112117231297667,-9.468671092578608,-0.2932596819072334,-1.697403144423529,9.7489160264805,0.008721001741349604,0.0022041167750873943,-0.09490227807719166,24.587836369890713,38.750917603941716,-26.375
1772306143.539972,12.938656620487725,0.7028229056119782,-9.461946246464636,-0.29429139334900206,-1.6048654303384347,9.75596885114619,0.009797789886805073,0.007661060423952954,-0.10144726277217041,23.09170234761185,37.247061564495226,-26.375
1772306143.557251,12.76893574112409,0.702714224252009,-9.461256514621843,-0.2949779857885272,-1.5432826153288026,9.760662427175992,0.0021704231189697567,0.004368924284704211,-0.09817477042468103,23.09170234761185,37.247061564495226,-26.375
1772306143.581828,12.63561209213306,0.6956085202379956,-9.433644153057967,-0.2953401916838421,-1.539096046748515,9.763785949593146,0.01743919567802274,0.0054990607190126065,-0.1090830782496456,23.09170234761185,37.247061564495226,-26.375
1772306143.613738,12.50768908527518,0.6974529806907385,-9.418459222339061,-0.25525060074489425,-1.609798821852251,9.775899953991688,0.005420442188071452,0.013103965049436166,-0.06763150851478027,23.46670110532752,37.24802681664118,-26.0
1772306143.6326177,12.50768908527518,0.6974529806907385,-9.418459222339061,-0.25525060074489425,-1.609798821852251,9.775899953991688,0.005420442188071452,0.013103965049436166,-0.06763150851478027,23.46670110532752,37.24802681664118,-26.0
1772306143.6626766,12.310464292986259,0.6936757762083895,-9.40431045247595,-0.22875224287531912,-1.5866036157408043,9.783961688596623,-0.013092733830730285,0.0010571335127201804,-0.07090400086226964,23.46670110532752,37.24802681664118,-26.0
1772306143.699658,12.07359558896207,0.6609860691866112,-9.414440284048917,-0.23118848547380794,-1.571219127201129,9.759220677554856,0.004349269651968923,0.005465367062894968,-0.09817477042468103,23.782095826528433,36.12383492028247,-26.0
1772306143.7201092,11.931832552311459,0.6617966880279367,-9.399425212681109,-0.23280977770848926,-1.5609809219339732,9.736065587667122,-0.002226579212499153,0.017447619092052148,-0.08835729338221293,23.782095826528433,36.12383492028247,-26.0
1772306143.750668,11.931832552311459,0.6617966880279367,-9.399425212681109,-0.23280977770848926,-1.5609809219339732,9.736065587667122,-0.002226579212499153,0.017447619092052148,-0.08835729338221293,23.782095826528433,36.12383492028247,-26.0
1772306143.791001,11.707795362816828,0.6433891591611325,-9.400855525822744,-0.2338628985696172,-1.5642028125742466,9.720656134006138,-1.6846828058818835e-05,0.006544963013026908,-0.07526732399225546,23.782095826528433,36.12383492028247,-25.1875
1772306143.818372,11.51247095223117,0.622461356107004,-9.423900698815894,-0.21776074257960693,-1.5964097987530437,9.71040131472963,0.003258442483131105,0.005462559258218499,-0.08290313946973066,23.782095826528433,36.12383492028247,-25.1875
1772306143.8465867,13.84284339008958,0.6159336494248568,-9.404760381787797,-0.2071224306712179,-1.5877372826474663,9.716957293884228,0.009772519644716844,0.017478504943493314,-0.08399397025222712,22.97056377029044,35.74674478291723,-26.0
1772306143.8633459,13.758799805599281,0.6012001901884797,-9.398793352374753,-0.19996525990382102,-1.612071725689515,9.774842012093638,-0.0011160974109260464,0.009814636714863892,-0.07526732399225546,22.97056377029044,35.74674478291723,-26.0
1772306143.9208245,13.758799805599281,0.6012001901884797,-9.398793352374753,-0.19996525990382102,-1.612071725689515,9.774842012093638,-0.0011160974109260464,0.009814636714863892,-0.07526732399225546,22.97056377029044,35.74674478291723,-26.0
1772306143.9749525,17.30392573278554,0.5550314745838546,-9.39832724476845,-0.25757343901925284,-1.7194948016796632,9.838999362129371,0.0021563840955874077,0.0098230601288933,-0.07635815477475191,22.96782888921024,36.80924126311163,-26.0
1772306144.0207217,18.840327028103985,0.5324289501971404,-9.39314771343461,-0.27681950243954584,-1.7801492321728734,9.80253785789444,-0.0021872699470285757,0.0021760387283226964,-0.0818123086872342,21.470568739427765,35.74288377433342,-25.5625
1772306144.0796309,20.38669586972852,0.5130957226375507,-9.403845347766387,-0.2899116837634824,-1.710125757461209,9.784963357542424,0.003252826873778165,0.007644213595894135,-0.08617563181722002,21.470568739427765,35.74288377433342,-25.5625
1772306144.1079516,21.757321339915112,0.5155116602669645,-9.418254074488589,-0.32538518919149884,-1.6635947999474792,9.773267723878188,0.00650284594287986,0.016379254360626087,-0.1265363707695889,22.659834434461626,35.05844268365021,-25.5625
1772306144.1240108,21.656008763953494,0.5265293728306041,-9.407767499012792,-0.27861614259743117,-1.6826246598233208,9.765484410323428,-0.002209732384440334,0.01090265607902524,-0.07308566242726255,22.659834434461626,35.05844268365021,-25.5625
1772306144.1448555,21.656008763953494,0.5265293728306041,-9.407767499012792,-0.27861614259743117,-1.6826246598233208,9.765484410323428,-0.002209732384440334,0.01090265607902524,-0.07308566242726255,22.659834434461626,35.05844268365021,-25.5625
1772306144.1644127,23.057549669081887,0.5372624259715275,-9.414858506285757,-0.2575271664108809,-1.6953146500032612,9.760304702098043,0.00650565374755633,0.01528842719178827,-0.10144726277217041,22.659834434461626,35.05844268365021,-25.5625
1772306144.1929953,22.813008979313913,1.4459818674855698,-9.230955885853632,-0.243561571031449,-1.6769988917053484,9.733441882183946,-0.002254657259263851,0.028355890780430326,-0.09817477042468103,22.661925814111193,34.24594537526627,-26.0
1772306144.2259536,22.813008979313913,1.4459818674855698,-9.230955885853632,-0.243561571031449,-1.6769988917053484,9.733441882183946,-0.002254657259263851,0.028355890780430326,-0.09817477042468103,22.661925814111193,34.24594537526627,-26.0
1772306144.253728,24.126995762129066,0.605732210317301,-9.384985714844495,-0.23437094735248556,-1.6246687516492366,9.715564975608476,-0.00986517719904035,0.018518791628154677,-0.07744898555724837,22.661925814111193,34.24594537526627,-26.0
1772306144.3248236,23.700189720785858,0.6408053214825802,-9.37944726510446,-0.22825468996012882,-1.5898436280078612,9.703668093980632,0.009792174277452133,0.009842714761628589,35.6723482491991,21.911767423322196,34.30651466392697,-26.75
1772306144.344968,23.572218399285585,0.6400562816919455,-9.392809073090413,-0.2342196908659065,-1.566693728256678,9.74258241605665,0.008695731499261377,0.012021561294627755,-0.07308566242726255,21.911767423322196,34.30651466392697,-26.75
1772306144.370299,23.34373784362757,0.6226820340414652,-9.400670975375096,-0.2248261505055374,-1.5445630859753354,9.691541893428433,-0.0076638682286294234,0.010888617055642891,-0.11562806294462433,22.286766181037862,34.30747991607292,-26.0
1772306144.4154904,23.34373784362757,0.6226820340414652,-9.400670975375096,-0.2248261505055374,-1.5445630859753354,9.691541893428433,-0.0076638682286294234,0.010888617055642891,-0.11562806294462433,22.286766181037862,34.30747991607292,-26.0
1772306144.4609108,24.649615182169317,0.6280602206577028,-9.386743864332239,-0.228351846105437,-1.6302142405357987,9.704406559681821,0.013050616760583238,0.01530527401984709,-0.10253809355466686,22.286766181037862,34.30747991607292,-26.0
1772306144.495932,25.569553666074274,0.6236124095224567,-9.37768717192545,-0.23095646724288507,-1.5868611083365065,9.712967851365713,-0.010930734125789938,0.008698539303937845,-0.10253809355466686,21.91434142904474,33.306517976685186,-26.0
1772306144.5649643,27.46558909337111,0.6275494052624253,-9.367006021246281,-0.2324315034140169,-1.6583631019172886,9.718665295345449,0.019604003187639555,0.012049639341392453,-0.07963064712224129,21.477808130522412,32.93039309146591,-26.375
1772306144.6154268,28.048972678432605,0.634477052998084,-9.344531754374854,-0.2234467043247696,-1.6791602438994795,9.702386210425427,-1.965463273528864e-05,0.0076357901818647255,-0.10362892433716332,21.477808130522412,32.93039309146591,-26.375
1772306144.6511097,27.88293921946177,0.6242602108704399,-9.3588081250434,-0.20743211902033842,-1.6929746785592978,9.66479176760189,-0.002198501165734455,0.006539347403673968,-0.10471975511965978,21.165309165759354,32.929588714677614,-26.0
1772306144.6843092,28.692681220157308,0.6497524005583545,-9.3649894986408,-0.2068098932721983,-1.702193861518092,9.639773085860272,-0.009848330370981529,0.011973828615127769,-0.07417649320975901,21.165309165759354,32.929588714677614,-26.0
1772306144.7092836,29.322777938697435,0.6452361453881242,-9.36836145558539,-0.2566239803941875,-1.6883876760876675,9.649884326296766,-0.00983148354292271,0.005428865602100861,-0.09708393964218458,21.478773382668365,32.55539433375024,-27.1875
1772306144.7305858,29.176536247182426,0.6639521765996598,-9.375791603433846,-0.30644854002285965,-1.6993134693469407,9.716825254589045,0.005423249992747922,0.012013137880598346,-0.12762720155208535,21.478773382668365,32.55539433375024,-27.1875
1772306144.7592177,29.176536247182426,0.6639521765996598,-9.375791603433846,-0.30644854002285965,-1.6993134693469407,9.716825254589045,0.005423249992747922,0.012013137880598346,-0.12762720155208535,21.478773382668365,32.55539433375024,-27.1875
1772306144.8021042,29.830374809500235,0.6615067195992508,-9.379632870312886,-0.3396578898990045,-1.6865138589572408,9.761373694588391,0.005417634383394983,0.014194792218273983,-0.08835729338221293,21.478773382668365,32.55539433375024,-27.1875
1772306144.8436086,30.02606730957971,0.6608286221829167,-9.397251735437962,-0.2981497673590818,-1.6979028685816842,9.754223954988761,-0.0054709826722479085,0.006530923989644559,-0.09490227807719166,20.41740302997758,32.11516090200176,-26.375
1772306144.8627608,30.49293326275298,0.6567492519200993,-9.3991346044949,-0.270698782218417,-1.638580114747716,9.749465883153032,0.009786558668099195,0.012024369099304225,-0.12326387842209953,20.41740302997758,32.11516090200176,-26.375
1772306144.8897197,30.375269648059486,0.6587709077073568,-9.389068853119829,-0.26910429936370345,-1.6192151401878154,9.769715221448736,0.003216325412984058,0.021824966790785768,-0.11126473981463851,20.41740302997758,32.11516090200176,-26.375
1772306144.9053504,31.02166168676629,0.6656357474068934,-9.376009829751313,-0.26812929220220383,-1.5728769596814105,9.793226265006554,0.003244403459748756,0.010916695102407588,-0.11453723216212788,21.482634391252176,31.055399302887565,-26.0
1772306144.9315727,30.9196278894827,0.6640291894885413,-9.374671803817726,-0.26404923183522466,-1.5754818141068447,9.808872601858717,-0.013123619682171453,0.013056232369936178,-0.07963064712224129,21.482634391252176,31.055399302887565,-26.0
1772306144.9492114,31.41539207453254,0.6592613609350508,-9.391645177580328,-0.26119623185142576,-1.63073692564121,9.785833947179603,-0.013098349440083226,0.003238787850395816,-0.09926560120717749,21.482634391252176,31.055399302887565,-26.0
1772306144.9643066,31.41539207453254,0.6592613609350508,-9.391645177580328,-0.26119623185142576,-1.63073692564121,9.785833947179603,-0.013098349440083226,0.003238787850395816,-0.09926560120717749,21.482634391252176,31.055399302887565,-26.0
1772306144.984843,31.189705232961874,0.6715498539394278,-9.39925163363739,-0.2626426928580788,-1.6675171954639683,9.743741086190733,-0.008768734420849592,0.01633994509515551,-0.13962634015954636,20.420137911057783,31.052664421807364,-26.75
1772306144.998288,31.189705232961874,0.6715498539394278,-9.39925163363739,-0.2626426928580788,-1.6675171954639683,9.743741086190733,-0.008768734420849592,0.01633994509515551,-0.13962634015954636,20.420137911057783,31.052664421807364,-26.75
1772306145.027712,31.480709712458378,0.6732967889363359,-9.39636112053138,-0.26381194458023044,-1.6117116391499247,9.675587416922875,0.003210709803631118,0.024006621128461404,-0.11780972450961724,20.420137911057783,31.052664421807364,-26.75
1772306145.040959,31.480709712458378,0.6732967889363359,-9.39636112053138,-0.26381194458023044,-1.6117116391499247,9.675587416922875,0.003210709803631118,0.024006621128461404,-0.11780972450961724,20.420137911057783,31.052664421807364,-26.75
1772306145.0626037,31.817023491178677,0.6633463959967003,-9.390457116805699,-0.2712802697914711,-1.5745908854851935,9.630231911351485,0.0010430944893378314,0.018546869674919378,-0.10581058590215622,20.421264038561393,30.615165871139084,-26.0
1772306145.0837705,31.69967418879509,0.6604435427542235,-9.3889770009828,-0.25278299039241797,-1.5698977699852017,9.660260339779668,-0.01528842719178827,0.00650565374755633,-0.10690141668465268,20.421264038561393,30.615165871139084,-26.0
1772306145.1060808,31.69967418879509,0.6604435427542235,-9.3889770009828,-0.25278299039241797,-1.5698977699852017,9.660260339779668,-0.01528842719178827,0.00650565374755633,-0.10690141668465268,20.421264038561393,30.615165871139084,-26.0
1772306145.1517456,31.994534171813743,0.6374406296888492,-9.400988392267076,-0.27051028051903825,-1.5936128520817716,9.6802439234591,0.008695731499261377,0.012021561294627755,-0.11344640137963143,20.79626279627706,30.616131123285037,-25.5625
1772306145.207116,31.834487275887476,0.6175940492301079,-9.352617505720904,-0.2522705711329577,-1.5825566762659347,9.706923221995783,-0.0021900777517050453,0.0032668658971605146,-0.12326387842209953,20.79626279627706,30.616131123285037,-25.5625
1772306145.2454004,31.834487275887476,0.6175940492301079,-9.352617505720904,-0.2522705711329577,-1.5825566762659347,9.706923221995783,-0.0021900777517050453,0.0032668658971605146,-0.12326387842209953,20.79626279627706,30.616131123285037,-25.5625
1772306145.2689962,32.558463198913294,0.616172053062423,-9.366349636484397,-0.23701101641525887,-1.488217688159294,9.6811915449495,0.007593673111717678,0.016382062165302556,-0.10035643198967395,20.423838044283933,29.6151691838973,-27.1875
1772306145.3311718,32.565353451881265,0.6147670697059888,-9.359459383516427,-0.22685595321102553,-1.425436145409872,9.714244076926658,-3.088585144116786e-05,0.011999098857215996,-0.11453723216212788,20.423838044283933,29.6151691838973,-27.1875
1772306145.3638573,32.565353451881265,0.6147670697059888,-9.359459383516427,-0.22685595321102553,-1.425436145409872,9.714244076926658,-3.088585144116786e-05,0.011999098857215996,-0.11453723216212788,20.423838044283933,29.6151691838973,-27.1875
1772306145.3950229,32.3892679467144,0.6225244330416839,-9.361259441879339,-0.22334825901042124,-1.4204604472460975,9.68606349212669,0.003230364436366407,0.016370830946596675,-0.11126473981463851,18.609574419723955,30.298001521003922,-27.1875
1772306145.4299936,32.4313158737221,0.6501011389855297,-9.368753568102779,-0.24087788337781696,-1.4974832527389133,9.717486303349862,-0.006587080083173955,0.01634556070450845,-0.1265363707695889,18.609574419723955,30.298001521003922,-27.1875
1772306145.4468198,32.69283354639668,0.6580361994445516,-9.37089765773437,-0.23247304882094547,-1.548689407373206,9.698256492715249,0.00651407716158574,0.012015945685274816,-0.136353847812057,18.17770650657373,28.10938264015891,-27.5625
1772306145.4808078,32.69283354639668,0.6580361994445516,-9.37089765773437,-0.23247304882094547,-1.548689407373206,9.698256492715249,0.00651407716158574,0.012015945685274816,-0.136353847812057,18.17770650657373,28.10938264015891,-27.5625
1772306145.5277677,32.40225081632235,0.6525177635206246,-9.360371331075358,-0.23013011223382546,-1.6195712484922817,9.69549460367093,0.015207000856170645,0.02512833414874039,-0.12871803233458182,18.17770650657373,28.10938264015891,-27.5625
1772306145.5660892,32.40225081632235,0.6525177635206246,-9.360371331075358,-0.23013011223382546,-1.6195712484922817,9.69549460367093,0.015207000856170645,0.02512833414874039,-0.12871803233458182,18.17770650657373,28.10938264015891,-27.5625
1772306145.5983152,32.71305129490548,0.6818730545056161,-9.371677212114957,-0.2276049872694313,-1.6702780057839757,9.685755021277421,0.010857731204201724,0.01966296708584542,-0.11126473981463851,17.488439155160762,28.79511073370339,-28.75
1772306145.6266522,32.50897951107142,0.6786309548830184,-9.369074806117998,-0.2269335233344893,-1.683761599372144,9.693865237494283,0.007593673111717678,0.016382062165302556,-0.10253809355466686,17.488439155160762,28.79511073370339,-28.75
1772306145.646333,32.50897951107142,0.6786309548830184,-9.369074806117998,-0.2269335233344893,-1.683761599372144,9.693865237494283,0.007593673111717678,0.016382062165302556,-0.10253809355466686,17.488439155160762,28.79511073370339,-28.75
1772306145.6789954,32.686678220621864,0.6508066218143802,-9.3730459919455,-0.22652111293323773,-1.6793543777803681,9.699262495789553,-0.007658252619276484,0.008706962717967255,-0.10690141668465268,18.613435428307767,28.798006490141248,-29.1875
1772306145.7033908,33.00987439959195,0.6341548417905258,-9.398398017936278,-0.22621221707142217,-1.6898018235460246,9.69616408747909,-0.005479406086277318,0.009803405496158012,-0.10144726277217041,18.613435428307767,28.798006490141248,-29.1875
1772306145.7821488,32.907361124434225,0.6399940560208702,-9.373067732563635,-0.2528018966788702,-1.6834429621877778,9.694102131359966,0.009780943058746255,0.014206023436979862,-0.13526301702956053,17.80479912850763,27.29592007962901,-29.5625
1772306145.808625,33.18601791089119,0.6271917996324767,-9.374590737441336,-0.27046259008473494,-1.6925916134900927,9.699420146010887,-0.006564617645762196,0.007618943353805907,-0.09272061651219876,17.80479912850763,27.29592007962901,-29.5625
1772306145.8259013,32.97309816860029,0.6251641400928087,-9.378252487265666,-0.2789049249844016,-1.6852909258948825,9.702959225354958,-4.492487482351689e-05,0.01745323470140509,-0.12980886311707826,17.80479912850763,27.29592007962901,-29.5625
1772306145.8610423,33.10400604664321,0.6513754230243167,-9.380638638623301,-0.2844026598395893,-1.7272638086151173,9.705314443124331,-0.0011329442389848652,0.0163595997278908,-0.09272061651219876,17.116979655313585,27.419150036599984,-29.1875
1772306145.8829117,32.96426120311507,0.6513764285748204,-9.370585794166518,-0.28831104073563246,-1.6581883750501925,9.660050250337871,0.005409210969365573,0.017467273724787437,-0.1308996938995747,17.116979655313585,27.419150036599984,-29.1875
1772306145.9189432,32.96426120311507,0.6513764285748204,-9.370585794166518,-0.28831104073563246,-1.6581883750501925,9.660050250337871,0.005409210969365573,0.017467273724787437,-0.1308996938995747,17.116979655313585,27.419150036599984,-29.1875
1772306145.9530277,33.09326808209126,0.6781440920620709,-9.3503766153832,-0.28397212354728957,-1.7092101431099522,9.696829669819033,-0.007677907252011773,0.01634275289983198,-0.11235557059713497,18.180441387653932,27.046886159964515,-30.375
1772306145.9898689,33.205233792966744,0.6651432174333112,-9.349280569960575,-0.28107601229065093,-1.7465096604290014,9.717960850923392,-0.002223771407822683,0.016356791923214327,-0.12326387842209953,18.180441387653932,27.046886159964515,-30.375
1772306146.0556288,33.174508450237546,0.6868117528969051,-9.356983208846387,-0.2791486826010405,-1.771332072541919,9.732023415897583,-0.002212540189116804,0.011993483247863057,-0.10690141668465268,17.678512539741135,27.795596672534582,-31.5625
1772306146.1280584,33.38499989498522,0.6959816419500997,-9.328644161562092,-0.2713222406942539,-1.7309671792070571,9.724656337262166,0.005400787555336164,0.02073975523130089,-0.0916297857297023,17.678512539741135,27.795596672534582,-31.5625
1772306146.1548393,33.13953734134587,0.6557735311839624,-9.336110795858575,-0.266113831032372,-1.7041047935981097,9.716408517018637,-0.002195693361057985,0.00544852023483615,-0.11126473981463851,16.617946563838647,27.042864276023046,-30.75
1772306146.174862,33.58651670416964,0.6478946967056343,-9.332056692728118,-0.2626476925841377,-1.6862281760478641,9.710919684780759,0.003241595655072286,0.012007522271245406,-0.13744467859455345,16.617946563838647,27.042864276023046,-30.75
1772306146.2030976,33.42038600859322,0.6168665633174925,-9.323559654746093,-0.270350487033429,-1.684392619650429,9.707266928240724,0.019620850015698375,0.005504676328365546,-0.14835298641951802,16.617946563838647,27.042864276023046,-30.75
1772306146.2263124,33.52194678087562,0.6258172437810412,-9.300871490363821,-0.25547488963235937,-1.6563586103461967,9.758357846884405,0.01740269421722863,0.019679813913904238,-0.13744467859455345,16.99374969834261,26.73133056340594,-32.25
1772306146.26221,33.33256906556995,0.6091139093017213,-9.273053781076444,-0.25902463092976824,-1.6109759266551573,9.792358282518817,-0.0022069245797638644,0.009811828910187422,-0.11126473981463851,16.99374969834261,26.73133056340594,-32.25
1772306146.291811,33.33256906556995,0.6091139093017213,-9.273053781076444,-0.25902463092976824,-1.6109759266551573,9.792358282518817,-0.0022069245797638644,0.009811828910187422,-0.11126473981463851,16.99374969834261,26.73133056340594,-32.25
1772306146.3377316,32.52176559716297,0.5894208312140673,-9.234612841588511,-0.2629590371426526,-1.5606753842461303,9.824471902358269,0.011923288130951311,0.029483219410062253,-0.14835298641951802,17.681247420821336,26.73310019234019,-32.75
1772306146.359286,32.52176559716297,0.5894208312140673,-9.234612841588511,-0.2629590371426526,-1.5606753842461303,9.824471902358269,0.011923288130951311,0.029483219410062253,-0.14835298641951802,17.681247420821336,26.73310019234019,-32.75
1772306146.408489,32.875133168902835,0.557360512786633,-9.250421558813132,-0.24058954311405115,-1.5472395361804927,9.833011336186964,-0.007680715056688242,0.0174335800686698,-0.14835298641951802,16.995519327276856,26.043832840927216,-32.375
1772306146.435606,32.6486436144609,0.5564397496567305,-9.261026773151302,-0.2257028947216383,-1.5382981293810678,9.74837621791061,-0.0011329442389848652,0.0163595997278908,-0.1538071403320003,16.995519327276856,26.043832840927216,-32.375
1772306146.4511688,33.04341406884968,0.5614949124404933,-9.267036798485428,-0.2156151794410254,-1.6025948361793438,9.772335173109582,0.01193732715433366,0.02402908356587316,-0.11671889372712078,16.995519327276856,26.043832840927216,-32.375
1772306146.486667,33.04341406884968,0.5614949124404933,-9.267036798485428,-0.2156151794410254,-1.6025948361793438,9.772335173109582,0.01193732715433366,0.02402908356587316,-0.11671889372712078,16.995519327276856,26.043832840927216,-32.375
1772306146.51198,32.766170927952246,0.5564405787709751,-9.277925971919405,-0.19886661573162157,-1.645357745302289,9.771554031618834,0.004321191605204225,0.016373638751273147,-0.136353847812057,17.433017877945137,26.044958968430826,-33.0625
1772306146.5508316,32.97900517426884,0.5567156973011256,-9.31845650160822,-0.18775507502343755,-1.6604355811275218,9.78775974921926,-0.014208831241656332,0.01087177022758407,-0.08508480103472356,17.433017877945137,26.044958968430826,-33.0625
1772306146.5778887,33.24175845829784,0.5734108157462328,-9.326013560226814,-0.19050770506030634,-1.6270092353137335,9.791854249837979,-3.930926547057728e-05,0.015271580363729451,-0.07963064712224129,17.430443872222597,27.04495565567261,-34.75
1772306146.5992274,33.24175845829784,0.5734108157462328,-9.326013560226814,-0.19050770506030634,-1.6270092353137335,9.791854249837979,-3.930926547057728e-05,0.015271580363729451,-0.07963064712224129,17.430443872222597,27.04495565567261,-34.75
1772306146.6400511,33.47419984517459,0.5836141717653879,-9.319856167986206,-0.2057199521040426,-1.6047988169181147,9.801269317675805,-0.008757503202143711,0.011976636419804239,-0.10144726277217041,17.430443872222597,27.04495565567261,-34.75
1772306146.6674578,33.547120775262044,0.5868693636444251,-9.33484182990518,-0.21584353257971522,-1.5900180315824608,9.80084471673404,0.0010711725361025293,0.0076385979865411955,-0.1341721862470641,17.015146120911233,18.41885810070862,-34.6875
1772306146.6898587,33.32644249447824,0.5977553041453845,-9.334657492984867,-0.2392372827339196,-1.6069854407433444,9.807252372965038,0.0065084615522328,0.014197600022950452,-0.10144726277217041,17.015146120911233,18.41885810070862,-34.6875
1772306146.7404325,33.540977778496035,0.5796567194587563,-9.337039623882793,-0.2614871530510996,-1.6216393833006606,9.778065479535364,0.004326807214557165,0.014191984413597513,-0.10799224746714914,17.431248249010892,26.732456690909554,-35.0
1772306146.7573454,33.732216144586275,0.5751237204678646,-9.342198022542831,-0.2696039919482997,-1.631374197703936,9.758641927996878,0.004315575995851285,0.018555293088948786,-0.1461713248545251,17.431248249010892,26.732456690909554,-35.0
1772306146.788423,33.732216144586275,0.5751237204678646,-9.342198022542831,-0.2696039919482997,-1.631374197703936,9.758641927996878,0.004315575995851285,0.018555293088948786,-0.1461713248545251,17.431248249010892,26.732456690909554,-35.0
1772306146.8319457,33.87144220230767,0.5818269614727003,-9.350324144327807,-0.2816958588149011,-1.6378698286176678,9.745715771423303,0.011951366177716008,0.018574947721684075,-0.13853550937704992,17.431248249010892,26.732456690909554,-36.1875
1772306146.8557146,33.650414128524375,0.5731141297011216,-9.333548648591638,-0.2830957115714606,-1.625449874627585,9.73711355861822,0.0021563840955874077,0.0098230601288933,-0.09599310885968812,17.431248249010892,26.732456690909554,-36.1875
1772306146.8766286,33.650414128524375,0.5731141297011216,-9.333548648591638,-0.2830957115714606,-1.625449874627585,9.73711355861822,0.0021563840955874077,0.0098230601288933,-0.09599310885968812,17.431248249010892,26.732456690909554,-36.1875
1772306146.924824,33.905552003629424,0.6000659514751073,-9.35249140193826,-0.28386370154670465,-1.6807414458768504,9.73138888208945,-0.016404524602714313,0.01632029046242022,-0.10581058590215622,17.431248249010892,26.732456690909554,-35.5
1772306146.976647,33.99316269252524,0.6139578375566954,-9.350193802867794,-0.271183815200025,-1.6439107137821987,9.740959620637657,-0.0022434260405579717,0.023992582105079055,-0.10581058590215622,17.431248249010892,26.732456690909554,-35.5
1772306147.0388713,33.86323389912884,0.5980575741149096,-9.381866798519782,-0.26255606507302315,-1.6929924867664512,9.673736382668308,-0.010947580953848757,0.015243502316964754,-0.09708393964218458,16.617946563838647,27.042864276023046,-35.5
1772306147.0793328,33.86323389912884,0.5980575741149096,-9.381866798519782,-0.26255606507302315,-1.6929924867664512,9.673736382668308,-0.010947580953848757,0.015243502316964754,-0.09708393964218458,16.617946563838647,27.042864276023046,-35.5
1772306147.1534274,33.963516754479144,0.6223373564435171,-9.361782326601656,-0.24027831801981986,-1.6520205929577483,9.659106074098352,-3.930926547057728e-05,0.015271580363729451,-0.12980886311707826,16.617946563838647,27.042864276023046,-35.5
1772306147.1722977,34.29196614860311,0.6487080491009553,-9.382134596727617,-0.24544583693919747,-1.6549118229661204,9.635989320347024,-0.00332863760004285,0.021808119962726948,-0.08835729338221293,16.99374969834261,26.73133056340594,-37.0
1772306147.2021031,34.07741397577888,0.6667060163759133,-9.379762884521108,-0.24903113877858665,-1.599969193601394,9.633985825785853,0.009766904035363906,0.01966015928116895,-0.13526301702956053,16.99374969834261,26.73133056340594,-37.0
1772306147.2593567,34.497304842228736,0.6609376115854608,-9.389879770412454,-0.25132240339880546,-1.6002015943920571,9.642687857657853,-0.005493445109659667,0.015257541340347102,-0.13199052468207118,18.11794159470132,27.046725284606858,-38.1875
1772306147.3576667,34.09594610241927,0.709983383955203,-9.396194264660691,-0.2730125318665458,-1.5636118096587157,9.65851429778256,-0.003311790771984031,0.015263156949700043,-0.06872233929727672,17.42851336793069,27.79495317110395,-39.375
1772306147.379476,33.89041466329992,0.7240498319861968,-9.402986531963085,-0.2739719538606747,-1.576023382190149,9.669046616892633,0.015215424270200055,0.021855852642226933,-0.0719948316447661,17.42851336793069,27.79495317110395,-39.375
1772306147.4342728,33.68348779593997,0.7318618235117955,-9.389266349467542,-0.28794778930002807,-1.6010430895390426,9.763028661996977,-0.0011329442389848652,0.0163595997278908,-0.07308566242726255,16.99374969834261,26.73133056340594,-37.875
1772306147.4691052,33.68348779593997,0.7318618235117955,-9.389266349467542,-0.28794778930002807,-1.6010430895390426,9.763028661996977,-0.0011329442389848652,0.0163595997278908,-0.07308566242726255,16.99374969834261,26.73133056340594,-37.875
1772306147.5303605,34.07876810170505,0.7550143244051671,-9.404433029506496,-0.33703767820546987,-1.5619580677398193,9.744627581294916,0.004309960386498346,0.020736947426624422,-0.08399397025222712,17.677386412237524,28.233095223202863,-38.6875
1772306147.5445333,34.07876810170505,0.7550143244051671,-9.404433029506496,-0.33703767820546987,-1.5619580677398193,9.744627581294916,0.004309960386498346,0.020736947426624422,-0.08399397025222712,17.677386412237524,28.233095223202863,-38.6875
1772306147.5839562,34.136826269061885,0.7504496431806342,-9.421213654680429,-0.30880929531162454,-1.4777117571241063,9.736478195651975,-0.017484120552846257,0.01195417398239248,-0.10144726277217041,17.677386412237524,28.233095223202863,-38.6875
1772306147.6645248,34.08630756404155,0.7653389857899621,-9.460137794738598,-0.30124272472322516,-1.478725259622227,9.767762283913395,0.006483191310144572,0.024015044542490812,-0.12544553998709243,17.42738724042708,28.23245172177223,-39.0
1772306147.7061205,34.21778028690312,0.7607174113927062,-9.456395099296792,-0.2959833877671704,-1.5663723504832618,9.788581495185207,-0.007689138470717651,0.020706061575183253,-0.10799224746714914,17.42738724042708,28.23245172177223,-39.0
1772306147.7244973,34.04319736539231,0.7509599438423907,-9.449027305152923,-0.2924833577735594,-1.6247005103691234,9.80243644772077,0.02070886937985972,0.006598311301879834,-0.10799224746714914,18.11408058611751,28.546720315469532,-39.875
1772306147.7677822,34.19509565649708,0.7681490514553468,-9.43908924132667,-0.29022300960412545,-1.636756444198741,9.774860535082714,0.021763195087903434,0.02078187230144794,-0.08399397025222712,18.11408058611751,28.546720315469532,-39.875
1772306147.8258395,34.246688150301225,0.7641710957937748,-9.412005545141145,-0.29879712670781583,-1.6280798613699126,9.746473738143257,-0.003300559553278152,0.01089984827434877,-0.07744898555724837,18.113115333971557,28.9217190731852,-39.875
1772306147.8591619,34.084589761936435,0.7636718763444884,-9.430895885765228,-0.31121052778605857,-1.6156327118429163,9.727582641881346,0.010863346813554662,0.017481312748169785,-0.07744898555724837,18.113115333971557,28.9217190731852,-39.875
1772306147.9209466,34.382798489058786,0.8084056088572418,-9.422958236037301,-0.33619701066571867,-1.6073923245598571,9.76518750395621,-0.00985675378501094,0.015246310121641224,-0.10362892433716332,18.112150081825604,29.296717830900867,-39.875
1772306147.9498878,34.382798489058786,0.8084056088572418,-9.422958236037301,-0.33616000513270494,-1.578449682810341,9.790213119593195,0.020692022551800904,0.013143274314906743,-0.11453723216212788,18.112150081825604,29.296717830900867,-39.875
1772306147.977318,34.13146426287893,0.8382351098533887,-9.44605506460063,-0.33616000513270494,-1.578449682810341,9.790213119593195,0.020692022551800904,0.013143274314906743,-0.11453723216212788,18.112150081825604,29.296717830900867,-39.875
1772306148.0203207,34.137378759498866,0.8474711768053032,-9.450472197050324,-0.30937457335767854,-1.559119795343113,9.746655376513418,0.01303938554187736,0.01966858269519836,-0.12435470920459599,17.673847154369028,29.608090668160315,-40.1875
1772306148.0381103,33.95474392096043,0.8276828884909189,-9.460296739464905,-0.29155777806095373,-1.5429108705368912,9.717668185065698,-0.00983429134759918,0.00651969277093868,-0.12217304763960307,17.673847154369028,29.608090668160315,-40.1875
1772306148.054555,33.89012229317703,0.8290873546365141,-9.459143148685946,-0.2898050843883644,-1.5053890381477513,9.708412868087343,-0.005490637304983197,0.014166714171509285,-0.13744467859455345,17.673847154369028,29.608090668160315,-40.1875
1772306148.08584,33.89012229317703,0.8290873546365141,-9.459143148685946,-0.2898050843883644,-1.5053890381477513,9.708412868087343,-0.005490637304983197,0.014166714171509285,-0.13744467859455345,17.673847154369028,29.608090668160315,-40.1875
1772306148.1226737,33.61010468882529,0.8321179743503254,-9.474856201670622,-0.29860510551202923,-1.5072053138553265,9.702253558026912,0.006491614724173982,0.020742563035977362,-0.13199052468207118,17.42207835362434,30.294944889208406,-41.0
1772306148.1575289,33.65513850055125,0.8250933644460461,-9.463296702044397,-0.3078151322296014,-1.5050775347604928,9.738295946473531,0.0010402866846613615,0.019637696843757192,-0.11126473981463851,17.42207835362434,30.294944889208406,-41.0
1772306148.1931193,33.65513850055125,0.8250933644460461,-9.463296702044397,-0.3078151322296014,-1.5050775347604928,9.738295946473531,0.0010402866846613615,0.019637696843757192,-0.11126473981463851,17.42207835362434,30.294944889208406,-41.0
1772306148.2433214,33.42905114286051,0.8198423207486328,-9.461079133670982,-0.3136343300070276,-1.624085144069562,9.712105077755105,-0.0033202141860134405,0.018535638456213498,-0.13308135546456762,17.669181768996925,31.420584663786045,-39.875
1772306148.2969532,33.46207715511545,0.8514555064523606,-9.459254495524124,-0.31781691324358474,-1.582859756134814,9.768267804755192,0.0010543257080437105,0.014183560999568103,-0.11780972450961724,17.669181768996925,31.420584663786045,-39.875
1772306148.3173773,33.38261976250285,0.8448963000987002,-9.460001257522483,-0.32029040354461896,-1.6758483435098286,9.772192355121788,-0.005510291937718486,0.021802504353374007,-0.12435470920459599,19.607640602673833,31.0505730421578,-41.0
1772306148.331954,33.2437481988788,0.8333896489669451,-9.460829142257763,-0.32211730077948086,-1.6674840965160826,9.774804099550657,0.010871770227584072,0.014208831241656332,-0.1189005552921137,19.607640602673833,31.0505730421578,-41.0
1772306148.3499842,33.111925829702905,0.842686660857203,-9.456035105422991,-0.31316001321734804,-1.7154135625788438,9.766506851171016,0.007585249697688269,0.019654543671816013,-0.12326387842209953,19.607640602673833,31.0505730421578,-41.0
1772306148.366834,33.111925829702905,0.842686660857203,-9.456035105422991,-0.31316001321734804,-1.7154135625788438,9.766506851171016,0.007585249697688269,0.019654543671816013,-0.12326387842209953,19.607640602673833,31.0505730421578,-41.0
1772306148.3942177,32.86496894593952,0.8230666931991122,-9.435811632403425,-0.3073109727810102,-1.703823778701344,9.760985125060701,0.02724821678353369,0.008796812467614289,-0.12871803233458182,18.103784563227347,32.54670706443667,-41.375
1772306148.4359124,33.09181797505643,0.8195991046716185,-9.433335549217063,-0.2899261648287945,-1.739562773785578,9.683718020454982,0.019606810992316027,0.010958812172554636,-0.11344640137963143,18.103784563227347,32.54670706443667,-41.375
1772306148.4721665,33.001449631632404,0.8382687859140008,-9.447871163389445,-0.2783653796743016,-1.7600015751576288,9.608881843518756,0.011968213005774829,0.012029984708657165,-0.08508480103472356,18.479909448446627,32.11017376591434,-42.1875
1772306148.502458,33.001449631632404,0.8382687859140008,-9.447871163389445,-0.2783653796743016,-1.7600015751576288,9.608881843518756,0.011968213005774829,0.012029984708657165,-0.08508480103472356,18.479909448446627,32.11017376591434,-42.1875
1772306148.5277278,32.83354318313744,0.8291421385317729,-9.440308153432172,-0.27067180629641846,-1.7736033691543573,9.559079203742568,-0.0011217130202789858,0.011996291052539527,-0.10362892433716332,18.479909448446627,32.11017376591434,-42.1875
1772306148.5580196,32.744882049682026,0.7707709730052701,-9.44170521638602,-0.2823720359885975,-1.7459021559170675,9.596183449157161,0.0010683647314260595,0.008729425155379012,-0.11562806294462433,18.47685281665111,33.29766983201395,-41.0
1772306148.5982664,32.53121824421423,0.777233985762246,-9.450378813912804,-0.27684688833893834,-1.7006720615975852,9.620875909998993,0.009780943058746255,0.014206023436979862,-0.11999138607461016,18.47685281665111,33.29766983201395,-41.0
1772306148.6536963,32.288049770821885,0.7936885682064305,-9.42678203780727,-0.28653314612777137,-1.6772965816794838,9.630618243441733,-0.003303367357954622,0.011990675443186587,-0.14508049407202864,18.47685281665111,33.29766983201395,-43.375
1772306148.6717494,32.45672740816172,0.8154687939114071,-9.453134500699539,-0.2929792424836506,-1.6617404609152076,9.630411434104241,0.005426057797424392,0.010922310711760528,-0.11562806294462433,18.47685281665111,33.29766983201395,-43.375
1772306148.7031105,32.16496043933915,0.800943472335317,-9.437675396199893,-0.29726904760087375,-1.6513880363198365,9.636964028214992,0.014144251734097526,0.01421725465568574,-0.11017390903214205,18.101049682147146,33.60920354463106,-41.0
1772306148.74149,32.16496043933915,0.800943472335317,-9.437675396199893,-0.29726904760087375,-1.6513880363198365,9.636964028214992,0.014144251734097526,0.01421725465568574,-0.11017390903214205,18.101049682147146,33.60920354463106,-41.0
1772306148.7945755,31.911954817596527,0.7713884162223222,-9.43462373326582,-0.2987789963766975,-1.6009065749880167,9.727795381735444,-3.6501460794107476e-05,0.014180753194891633,-0.13744467859455345,19.59991858550621,34.05056310388315,-42.1875
1772306148.8408067,31.911954817596527,0.7713884162223222,-9.43462373326582,-0.2987789963766975,-1.6009065749880167,9.727795381735444,-3.6501460794107476e-05,0.014180753194891633,-0.13744467859455345,19.59991858550621,34.05056310388315,-42.1875
1772306148.886548,31.553801529619815,0.756351555496385,-9.410566557264108,-0.31122429326325995,-1.5875138914239435,9.728532851172137,0.010860539008878192,0.018572139917007603,-0.1407171709420428,19.59991858550621,34.05056310388315,-42.1875
1772306148.9441903,31.41231144365198,0.7177004970348589,-9.419343420046243,-0.30579029368468946,-1.7090256931765724,9.729023628844184,-0.010922310711760528,0.005426057797424391,-0.08944812416470939,17.660655375041006,34.73307369027445,-41.375
1772306148.9768236,30.891770390057967,0.7529521320271736,-9.415454021734037,-0.3053985528973108,-1.8158631968411838,9.752983371202747,0.01742234884996392,0.012044023732039513,-0.14726215563702155,18.09638429677504,35.42169754025679,-41.875
1772306149.0323362,30.636970911982452,0.7676939471735352,-9.414987539654547,-0.298895420716894,-1.7338671709868125,9.7887816289895,0.0021311138534991793,0.01964050464843366,-0.11671889372712078,18.09638429677504,35.42169754025679,-41.875
1772306149.0519488,30.636970911982452,0.7676939471735352,-9.414987539654547,-0.298895420716894,-1.7338671709868125,9.7887816289895,0.0021311138534991793,0.01964050464843366,-0.11671889372712078,18.09638429677504,35.42169754025679,-41.875
1772306149.0853457,30.484191311567493,0.7618736877993364,-9.414017111311676,-0.2945848795689273,-1.6726095304848068,9.812604969653844,-0.0011076739968966368,0.0065421552083504385,-0.09599310885968812,18.906790225509425,36.236286228290304,-41.875
1772306149.1507194,30.112966696585463,0.7620397593764598,-9.422549468201698,-0.31208068076409845,-1.609223369969642,9.77438108813575,0.008681692475879027,0.017475697138816845,-0.12544553998709243,18.469291674841145,36.23516010078669,-42.1875
1772306149.1894407,30.112966696585463,0.7620397593764598,-9.422549468201698,-0.31208068076409845,-1.609223369969642,9.77438108813575,0.008681692475879027,0.017475697138816845,-0.12544553998709243,18.469291674841145,36.23516010078669,-42.1875
1772306149.2154305,29.85961618207925,0.7597248334670106,-9.41229255471751,-0.3034284055347538,-1.5628996682641842,9.762880230092422,0.004335230628586574,0.010919502907084058,-0.11017390903214205,18.469291674841145,36.23516010078669,-42.1875
1772306149.2425435,29.918181489036655,0.750975549354369,-9.415415521972331,-0.29772207504193526,-1.5120011584942177,9.75522653753759,-0.00439419452679244,0.011987867638510117,-0.08399397025222712,18.907916353013036,35.79878767762202,-42.5625
1772306149.272365,29.689515693788294,0.7153858583121568,-9.435969666996048,-0.3173402802232644,-1.4781890411726537,9.750133090639697,0.003252826873778165,0.007644213595894135,-0.10799224746714914,18.907916353013036,35.79878767762202,-42.5625
1772306149.338292,29.32654448799049,0.7004624818708157,-9.412182188388034,-0.33030126291827877,-1.4924835616847558,9.746743458626678,0.0076105199397764976,0.00983709915227565,-0.0916297857297023,18.90212484013732,38.04878022391603,-41.375
1772306149.4132826,29.26139911485702,0.7054340297129857,-9.424509459465545,-0.34547047764618166,-1.5588803367167998,9.714381691020812,-0.014197600022950452,0.0065084615522328,-0.10799224746714914,18.90212484013732,38.04878022391603,-41.375
1772306149.4561336,28.892061656564806,0.6850660575548366,-9.409299657046406,-0.2988450856817391,-1.5460535624383949,9.712915966427655,0.01632871387644963,0.013132043096200863,-0.11344640137963143,17.654220360734655,37.23306540837891,-41.75
1772306149.5188146,28.346012403817934,0.7235064033445393,-9.398857952536307,-0.2473679357713029,-1.4538396367336919,9.711291409745199,-0.0011385598483378047,0.018541254065566438,-0.14508049407202864,18.090753659256983,37.60919029359819,-41.0
1772306149.5493345,28.22795501333817,0.7512460222423292,-9.404673240454889,-0.2401027654692392,-1.5330340812926357,9.714204530466757,0.01847105894865469,0.028409239069283256,-0.10144726277217041,18.090753659256983,37.60919029359819,-41.0
1772306149.5851278,28.22795501333817,0.7512460222423292,-9.404673240454889,-0.2401027654692392,-1.5330340812926357,9.714204530466757,0.01847105894865469,0.028409239069283256,-0.10144726277217041,18.090753659256983,37.60919029359819,-41.0
1772306149.613975,27.9464348363302,0.7604946225531711,-9.391741914043225,-0.2653737814224435,-1.5858145925167964,9.716143179765265,-0.0022350026265285624,0.0207201005985656,-0.11126473981463851,17.64955497536255,39.04555940400464,-43.0
1772306149.6441383,27.58160073688804,0.7883601992887159,-9.394040781907725,-0.2723799271198434,-1.5339409858594009,9.71743332921729,-7.581072626468475e-05,0.029452333558621084,-0.15707963267948966,17.64955497536255,39.04555940400464,-43.0
1772306149.6646137,27.58160073688804,0.7883601992887159,-9.394040781907725,-0.2723799271198434,-1.5339409858594009,9.71743332921729,-7.581072626468475e-05,0.029452333558621084,-0.15707963267948966,17.64955497536255,39.04555940400464,-43.0
1772306149.7256732,27.281412328087846,0.836847221426699,-9.400023503938066,-0.28707774069500674,-1.4994455111050902,9.735017467802294,-0.0022771196966756093,0.037082508131132876,-0.1189005552921137,18.898585582268826,39.42377566887349,-41.0
1772306149.7495563,26.899527306139415,0.8448226817214248,-9.386690893574004,-0.2933847157680117,-1.5266570570457174,9.746719515602916,0.001031863270631952,0.022910178350270646,-0.1308996938995747,18.898585582268826,39.42377566887349,-41.0
1772306149.783524,26.719204310916854,0.8436748654991022,-9.384762436572279,-0.31096233972866094,-1.5448004782430282,9.754507097693791,-0.007680715056688242,0.0174335800686698,-0.1538071403320003,18.898585582268826,39.42377566887349,-41.0
1772306149.8106675,26.343033855621606,0.8474053267093515,-9.35039344633262,-0.3093571426465499,-1.5267343753958773,9.759689646582276,0.01630905924371434,0.020767833278065587,-0.15489797111449674,18.083192517447017,40.54668056237093,-42.1875
1772306149.8344793,26.105608530324986,0.836385346784256,-9.357157446420743,-0.3450850088031352,-1.5148062994661395,9.763138574974699,0.003230364436366407,0.016370830946596675,-0.14944381720201447,18.083192517447017,40.54668056237093,-42.1875
1772306149.853798,25.864039245349225,0.8113749395515745,-9.367691641878814,-0.2918983592211146,-1.5167055623139818,9.698531564146414,0.006533731794321028,0.004380155503410091,-0.136353847812057,18.083192517447017,40.54668056237093,-42.1875
1772306149.881907,25.618934462275437,0.8096108229635024,-9.386575911283936,-0.2530806444022174,-1.5480667958183454,9.65553632014779,0.003252826873778165,0.007644213595894135,-0.14180800172453928,18.458191275162687,40.54764581451688,-41.0
1772306149.9478612,25.274456389780344,0.8133437605230852,-9.403746183121129,-0.2273081611692683,-1.545521642007155,9.626923465555052,-0.012024369099304225,0.009786558668099193,-0.11453723216212788,18.458191275162687,40.54764581451688,-41.0
1772306149.9789073,25.274456389780344,0.8133437605230852,-9.403746183121129,-0.2273081611692683,-1.545521642007155,9.626923465555052,-0.012024369099304225,0.009786558668099193,-0.11453723216212788,18.458191275162687,40.54764581451688,-41.0
1772306150.0369933,24.467805432516435,0.8426407193230382,-9.453256642570814,-0.2320612361979135,-1.5851304218290674,9.756811600779336,0.008670461257173148,0.021839005814168116,-0.08508480103472356,17.645693966778737,40.54555443486731,-40.6875
1772306150.1208363,24.23064136964797,0.8465542854736604,-9.464294737795306,-0.26342760650465746,-1.597077031145802,9.798019496423235,-0.02076502547338912,0.015218232074876525,-0.10035643198967395,18.453365014432922,42.42263960309523,-39.875
1772306150.1507802,23.98894256125298,0.865555791505241,-9.14211538128807,-0.24787571315209572,-1.4610933255820269,9.845513560895808,0.508061527038835,0.10384619084998982,-0.10362892433716332,18.453365014432922,42.42263960309523,-39.875
1772306150.1834495,24.093123263360468,0.8519784954216987,-9.375704088216061,-0.285080778893704,-1.0897297807153985,10.010924798551619,-0.014045978570421083,-0.052396205565009374,0.07417649320975901,17.39086853423853,42.419904722015026,-40.1875
1772306150.2134871,24.093123263360468,0.8519784954216987,-9.375704088216061,-0.285080778893704,-1.0897297807153985,10.010924798551619,-0.014045978570421083,-0.052396205565009374,0.07417649320975901,17.39086853423853,42.419904722015026,-40.1875
1772306150.2780106,24.38988901341167,0.9057346064943707,-9.409988237167038,-0.30984033453692805,-0.8425914900092687,10.121004129446964,0.0447828778205564,-0.022792250553858914,0.05126904677733343,17.39086853423853,42.419904722015026,-40.1875
1772306150.3352354,24.596561166785325,0.9331836000270498,-9.456446115945129,-0.3184207142536958,-1.3987421327281602,9.908725529333886,0.011959789591745418,0.01530246621517062,0.02399827721492203,17.640867706048972,42.42054822344566,-40.6875
1772306150.3803136,24.596561166785325,0.9331836000270498,-9.456446115945129,-0.3184207142536958,-1.3987421327281602,9.908725529333886,0.011959789591745418,0.01530246621517062,0.02399827721492203,17.640867706048972,42.42054822344566,-40.6875
1772306150.4387095,24.71683860031799,0.9574705955996489,-9.488206269273261,-0.31430338690410364,-1.436224379285904,9.862320290106,-0.022910178350270646,0.001031863270631952,0.037088246604879506,18.077561879928957,42.734173315712326,-40.6875
1772306150.4700024,24.799896936649972,1.001662222893051,-9.493905223191598,-0.31156335154651027,-1.4611683956659536,9.814712563243733,-0.001104866192220167,0.00545132803951262,0.030543261909900768,18.077561879928957,42.734173315712326,-40.6875
1772306150.5092967,24.85569721391953,1.0245259647896698,-9.511002180728108,-0.32968133732871313,-1.5279965313306156,9.77633992941541,-0.015271580363729451,-3.930926547057728e-05,0.03381575425739013,17.639098077114724,43.10804594592439,-39.875
1772306150.541295,24.931000802216847,1.0611934815691002,-9.517725424293422,-0.31830572942184077,-1.5790998379910648,9.747458258545748,-0.00983429134759918,0.00651969277093868,0.03381575425739013,17.639098077114724,43.10804594592439,-39.875
1772306150.5751011,24.980356147109973,1.0805476635777709,-9.521338226472771,-0.3207879119843574,-1.6064441474707392,9.731582940918711,-0.0010824037548084085,-0.003275289311189924,0.02399827721492203,17.390064157450233,42.732403686778085,-40.6875
1772306150.6119282,25.042394928843983,1.1108116248399016,-9.536672901148627,-0.32242255607856185,-1.6313316812250573,9.717672982669516,-0.01091388729773112,0.0021535762909109376,0.03599741582238305,17.390064157450233,42.732403686778085,-40.6875
1772306150.66873,25.202764677326297,1.1683287177474948,-9.539592506015028,-0.32424000632395916,-1.6567136457505827,9.766872682474979,-0.0032612502878075745,-0.004371732089380681,0.04036073895236887,18.079331508863206,42.0466755932336,-40.6875
1772306150.710288,25.25267303148743,1.1808988355607166,-9.544622988876114,-0.32469405528911477,-1.6748207726605226,9.774609028536164,-0.007649829205247075,0.005434481211453801,0.04254240051736178,18.079331508863206,42.0466755932336,-40.6875
1772306150.741056,25.25267303148743,1.1808988355607166,-9.544622988876114,-0.32469405528911477,-1.6748207726605226,9.774609028536164,-0.007649829205247075,0.005434481211453801,0.04254240051736178,18.079331508863206,42.0466755932336,-40.6875
1772306150.77674,25.399983230544507,1.2305260336492498,-9.549258142933128,-0.33503152168068584,-1.6868966943592583,9.769722145297274,-0.00983990695695212,0.008701347108614315,0.044724062082354694,18.451595385498674,43.11013732557395,-40.1875
1772306150.8419716,25.48412617443533,1.2611954165858164,-9.557541921224615,-0.3519721229745612,-1.6849236144855948,9.743054197140621,-0.00984271476162859,0.009792174277452133,0.05672320068981571,18.451595385498674,43.11013732557395,-40.1875
1772306150.8717813,25.706898251349152,1.346049694049186,-9.561459410006812,-0.37997140702558474,-1.6836536035538041,9.701891193591633,-0.00985956158968741,0.016337137290479038,0.06435901616729091,17.390064157450233,42.732403686778085,-39.875
1772306150.8975441,25.806771621316265,1.3653748749130912,-9.608321591459314,-0.3986046177890443,-1.6828084254656488,9.674497674550661,-0.016373638751273147,0.004321191605204225,0.039269908169872414,17.390064157450233,42.732403686778085,-39.875
1772306150.9266846,25.86139384266435,1.4020332456089992,-9.621952259660732,-0.407659710779751,-1.6822373585525625,9.632851811683317,-0.015305274019847088,0.013050616760583238,0.03490658503988659,18.89392019689672,41.23626966449922,-41.0
1772306150.9573202,25.917208152268504,1.4272686912896793,-9.61670369036195,-0.39362378059508846,-1.6784605572553029,9.638588072233063,-0.005465367062894969,0.004349269651968923,0.038179077387375956,18.89392019689672,41.23626966449922,-41.0
1772306150.9999282,26.02907743047921,1.470351585459272,-9.636423924442393,-0.3842916361854863,-1.6726020375558381,9.69258216516048,-0.012010330075921874,0.004332422823910104,0.04581489286485115,18.454330266578875,42.047640845379554,-39.875
1772306151.065021,26.1451894444546,1.5464251429328422,-9.64124152422571,-0.378098419001134,-1.6620130568882514,9.728514630850139,-0.0022209636031462134,0.015265964754376513,0.03599741582238305,18.454330266578875,42.047640845379554,-39.875
1772306151.0968034,26.1451894444546,1.5464251429328422,-9.64124152422571,-0.378098419001134,-1.6620130568882514,9.728514630850139,-0.0022209636031462134,0.015265964754376513,0.03599741582238305,18.454330266578875,42.047640845379554,-39.875
1772306151.1517565,26.240453541769572,1.6070455452403736,-9.649172254769782,-0.37732200277348965,-1.6549748188773141,9.712285944886832,-0.01421444685100927,0.013053424565259708,0.04581489286485115,18.452560637644627,42.73513856785828,-40.6875
1772306151.1767306,26.39888032383381,1.7036267674147825,-9.663843866419015,-0.39015987794019075,-1.6603606933273334,9.70148593566455,-0.009879216222422698,0.023972927472343766,0.06544984694978735,18.452560637644627,42.73513856785828,-40.6875
1772306151.216162,26.653373113841628,1.86593137953878,-9.706665316585651,-0.39867750944513664,-1.6739802344869807,9.731094878951644,-0.015353006699347076,0.03159467863082614,0.08835729338221293,18.079331508863206,42.0466755932336,-40.6875
1772306151.280694,27.01899948160305,2.0750220442132647,-9.781101878999893,-0.40434589806349985,-1.6830438869884827,9.750799299955636,-0.03283712725219333,0.04354885261321862,0.13308135546456762,18.079331508863206,42.0466755932336,-40.6875
1772306151.3186128,27.01899948160305,2.0750220442132647,-9.781101878999893,-0.40434589806349985,-1.6830438869884827,9.750799299955636,-0.03283712725219333,0.04354885261321862,0.13308135546456762,18.079331508863206,42.0466755932336,-40.6875
1772306151.3563046,27.93635515207581,2.699869851392675,-10.129317251664885,-0.2713566084271758,-1.652589753647519,9.692391754001243,-0.2845697174878324,0.37015120818897596,0.2879793265790644,18.077561879928957,42.734173315712326,-39.875
1772306151.4276917,27.861173410409236,4.334297919876604,-11.114005044687037,-0.028557064914734875,-1.6814400641493261,8.761650630935396,-0.579577404328705,0.9813499504490214,0.15817046346198613,18.077561879928957,42.734173315712326,-39.875
1772306151.4491482,26.99384832508315,7.0312115094878935,-12.888034560653367,0.1328166709639269,-1.6203572084906397,8.142252810594664,0.2408973115729077,0.4925863857840322,-0.03490658503988659,19.57546553114207,43.55053163268009,-38.5625
1772306151.4751356,26.99384832508315,7.0312115094878935,-12.888034560653367,0.1328166709639269,-1.6203572084906397,8.142252810594664,0.2408973115729077,0.4925863857840322,-0.03490658503988659,19.57546553114207,43.55053163268009,-38.5625
1772306151.5228162,28.654102546611984,6.922576957554328,-11.876200902988144,0.06539421298383523,-1.2422998246941217,7.7300504802849215,-0.5675558331381357,0.1250758931534226,0.4919646829059016,19.57546553114207,43.55053163268009,-38.5625
1772306151.5518909,28.79040732425109,6.966324802145915,-12.231832048770665,-0.28722393721483525,-0.9914990099295313,8.686735542359058,-0.16329275437384924,-0.129138776624333,0.07744898555724837,22.882645670827735,45.62155119407218,-40.1875
1772306151.5889966,28.79040732425109,6.966324802145915,-12.231832048770665,-0.28722393721483525,-0.9914990099295313,8.686735542359058,-0.16329275437384924,-0.129138776624333,0.07744898555724837,22.882645670827735,45.62155119407218,-40.1875
1772306151.6167905,29.17920200096372,7.012939069874084,-12.447434639622665,-1.0296021833324904,-1.1135812943237848,9.323398764297018,0.2828050171966418,-0.10835549547257611,0.18762289458939044,22.882645670827735,45.62155119407218,-40.1875
1772306151.6506264,29.662938550548947,7.079807065509126,-12.443955022830105,-1.5234055237884443,-1.2884885083613338,9.747091026502542,0.034872775746692536,0.01317977577570085,0.22143864884678055,22.75764608492251,45.62122944335687,-40.1875
1772306151.6769183,30.019253758914832,7.098847563974518,-12.456700727219028,-1.3901525445968106,-1.5007069971476892,9.858452796974344,0.00664885178605629,-0.040343758418940445,0.21380283336930536,22.75764608492251,45.62122944335687,-40.1875
1772306151.704125,30.368279707350307,7.1181545583924315,-12.447253606795979,-1.301474175478089,-1.6419360307991582,9.818829013181984,-0.005364286094542056,-0.03492050842619252,0.20943951023931956,23.44610905954719,45.24800031457544,-39.0
1772306151.7282171,30.368279707350307,7.1181545583924315,-12.447253606795979,-1.301474175478089,-1.6419360307991582,9.818829013181984,-0.005364286094542056,-0.03492050842619252,0.20943951023931956,23.44610905954719,45.24800031457544,-39.0
1772306151.7505612,30.475607609163053,7.143295772334832,-12.436885564202406,-1.3596759987207627,-1.682702126833866,9.792459827694836,-0.005468174867571439,0.0054400968208067405,0.06763150851478027,23.44610905954719,45.24800031457544,-39.0
1772306151.7787313,30.295939702300032,7.098462566169246,-12.461877896753728,-1.3984086619317964,-1.7098315083578328,9.758185870779643,-0.01528281158243533,0.004323999409880695,-0.1265363707695889,23.44610905954719,45.24800031457544,-39.0
1772306151.8272223,30.23089330963952,7.093413468726972,-12.47294751578074,-1.37045655853392,-1.8080304583387035,9.72868671190313,0.006550578622379847,-0.002164807509616817,0.04908738521234052,23.444339430612942,45.93549803705417,-40.6875
1772306151.8480978,30.317383044589874,7.107646554124396,-12.458875431101378,-1.351854745968087,-1.873380762596826,9.705710239490687,0.00545132803951262,0.001104866192220167,0.03490658503988659,23.444339430612942,45.93549803705417,-40.6875
1772306151.8748808,30.317383044589874,7.107646554124396,-12.458875431101378,-1.351854745968087,-1.873380762596826,9.705710239490687,0.00545132803951262,0.001104866192220167,0.03490658503988659,23.444339430612942,45.93549803705417,-40.6875
1772306151.928922,30.25910808084473,7.098265313756829,-12.477869905757025,-1.2823848681096377,-2.003696900616464,9.663658760105665,-0.0076357901818647255,-1.965463273528864e-05,-0.02945243112740431,24.256836738996892,45.93758941670374,-39.375
1772306151.9522314,30.25910808084473,7.098265313756829,-12.477869905757025,-1.2823848681096377,-2.003696900616464,9.663658760105665,-0.0076357901818647255,-1.965463273528864e-05,-0.02945243112740431,24.256836738996892,45.93758941670374,-39.375
1772306151.971156,30.27325563105392,7.0977487837090605,-12.469870063560522,-1.2999256107308415,-2.006956915494427,9.659089752271973,0.003255634678454635,0.006553386427056318,0.014180800172453928,24.256836738996892,45.93758941670374,-39.375
1772306151.994208,29.78371520740457,7.1020651593693005,-12.4705256784821,-1.3115987790023185,-2.0091264189789597,9.656049128597811,-0.01090827168837818,-2.8078046764698055e-05,-0.013089969389957472,23.13264484263818,45.62219469550282,-40.1875
1772306152.0387213,29.424789381089813,7.11564555813164,-12.471827376672685,-1.3193671420891528,-2.0105701993129736,9.660715850923287,0.004298729167792467,0.025100256101975693,-0.031634092692397225,23.13264484263818,45.62219469550282,-40.1875
1772306152.0522645,29.424789381089813,7.11564555813164,-12.471827376672685,-1.3193671420891528,-2.0105701993129736,9.660715850923287,0.004298729167792467,0.025100256101975693,-0.031634092692397225,23.13264484263818,45.62219469550282,-40.1875
1772306152.0926492,29.230305448144378,7.102864528796979,-12.460194576852986,-1.3344602684456552,-2.055043158142259,9.690582396158744,-0.00439419452679244,0.011987867638510117,-0.02945243112740431,24.25860636793114,45.250091694225006,-40.6875
1772306152.1135337,29.230305448144378,7.102864528796979,-12.460194576852986,-1.3077084685511353,-2.084544701744197,9.71045824838177,-0.002167615314293287,-0.005459751453542029,0.002181661564992912,24.25860636793114,45.250091694225006,-40.6875
1772306152.133027,29.230305448144378,7.102864528796979,-12.460194576852986,-1.3077084685511353,-2.084544701744197,9.71045824838177,-0.002167615314293287,-0.005459751453542029,0.002181661564992912,24.25860636793114,45.250091694225006,-40.6875
1772306152.151496,28.98013883929121,7.1024377088719985,-12.467854681876618,-1.296561204463355,-2.117575272633899,9.713650070886418,0.006533731794321028,0.004380155503410091,-0.003272492347489368,23.881837981281222,45.936624164557784,-41.375
1772306152.1721063,28.98013883929121,7.1024377088719985,-12.467854681876618,-1.2858321654569722,-2.126167735745572,9.715774193108267,0.007632982377188255,0.0011104818015731065,0.001090830782496456,23.881837981281222,45.936624164557784,-41.375
1772306152.1948974,28.595301593198045,7.105103130126176,-12.466572057544631,-1.2820458208118932,-2.128549433673193,9.687081767353034,-0.006539347403673968,-0.0021985011657344546,0.0,23.881837981281222,45.936624164557784,-41.375
1772306152.2141423,28.405116497042275,7.109823110562007,-12.464485819945645,-1.2761809501210608,-2.1301258167020385,9.647916608284406,-0.0021732309236462267,-0.0032780971158663935,0.001090830782496456,23.445143807401237,45.622999072291115,-39.0
1772306152.2399092,28.405116497042275,7.109823110562007,-12.464485819945645,-1.2761809501210608,-2.1301258167020385,9.647916608284406,-0.0021732309236462267,-0.0032780971158663935,0.001090830782496456,23.445143807401237,45.622999072291115,-39.0
1772306152.2644446,28.405116497042275,7.109823110562007,-12.464485819945645,-1.2655791326029873,-2.1345027619508015,9.61181729730577,0.0021732309236462267,0.0032780971158663935,0.002181661564992912,23.445143807401237,45.622999072291115,-39.0
1772306152.305635,28.273873421647604,7.107310469077558,-12.462134008464947,-1.2538284574928253,-2.1393540114186878,9.588531671506521,-2.8078046764698056e-06,0.001090827168837818,0.0,24.257641115785187,45.62509045194068,-39.0
1772306152.3643637,28.273873421647604,7.107310469077558,-12.462134008464947,-1.2538284574928253,-2.1393540114186878,9.588531671506521,-2.8078046764698056e-06,0.001090827168837818,0.0,24.257641115785187,45.62509045194068,-39.0
1772306152.4183488,28.127799704812855,7.11191841026687,-12.466140673169816,-1.2507296294626313,-2.1306087205717232,9.589022843789893,0.003266865897160514,0.0021900777517050453,-0.001090830782496456,23.88087272913527,46.31162292227345,-40.1875
1772306152.450769,28.105127758205853,7.116168140929607,-12.465679883903599,-1.2486415630146828,-2.134824129081687,9.589349713457723,-0.0021928855563815154,0.004357693065998332,-0.001090830782496456,23.88087272913527,46.31162292227345,-40.1875
1772306152.481081,27.924025938175426,7.115383063086398,-12.465296248750334,-1.2539594000437042,-2.1309564557776777,9.589567241570292,0.001090827168837818,2.8078046764698056e-06,-0.001090830782496456,23.13264484263818,45.62219469550282,-39.875
1772306152.5106835,27.924025938175426,7.115383063086398,-12.465296248750334,-1.2474630593050666,-2.1283567313885694,9.596402227513895,0.0010880193641613482,0.0010936349735142876,-0.001090830782496456,23.13264484263818,45.62219469550282,-39.875
1772306152.5351982,27.924025938175426,7.115383063086398,-12.465296248750334,-1.2474630593050666,-2.1283567313885694,9.596402227513895,0.0010880193641613482,0.0010936349735142876,-0.001090830782496456,23.13264484263818,45.62219469550282,-39.875
1772306152.5502381,27.917225637535633,7.1147508724425474,-12.465901623267566,-1.2531751189897034,-2.1266524748584743,9.600950834307568,0.001090827168837818,2.8078046764698056e-06,-0.002181661564992912,24.570140080548242,45.625894828728974,-39.875
1772306152.5689893,27.901993219050485,7.112885694902178,-12.466474904703755,-1.2536227199394914,-2.128854801464584,9.60397788131749,0.003269673701836984,0.0010992505828672273,-0.001090830782496456,24.570140080548242,45.625894828728974,-39.875
1772306152.5972202,27.901993219050485,7.112885694902178,-12.466474904703755,-1.2536227199394914,-2.128854801464584,9.60397788131749,0.003269673701836984,0.0010992505828672273,-0.001090830782496456,24.570140080548242,45.625894828728974,-39.875
1772306152.6562257,27.85049161341733,7.114005662096763,-12.467805674252313,-1.2539205933715454,-2.13032042521935,9.609337458995583,-0.0010964427781907577,0.002178846532999166,-0.001090830782496456,24.567244324110384,46.75089110187598,-39.875
1772306152.7170823,27.85049161341733,7.114005662096763,-12.467805674252313,-1.254118824813113,-2.131295781456057,9.612904198069948,0.001090827168837818,2.8078046764698056e-06,0.001090830782496456,24.567244324110384,46.75089110187598,-39.875
1772306152.7372224,27.539133318879827,7.118068857982053,-12.464082183266441,-1.2576130669222132,-2.1252632792212736,9.615277823080852,-2.8078046764698056e-06,0.001090827168837818,-0.001090830782496456,23.444339430612942,45.93549803705417,-40.1875
1772306152.757837,27.539133318879827,7.118068857982053,-12.464082183266441,-1.2599212253392231,-2.1279389176230366,9.61016722059584,-0.0010880193641613482,-0.0010936349735142876,0.002181661564992912,23.444339430612942,45.93549803705417,-40.1875
1772306152.8259656,27.530718176691447,7.116836082180384,-12.464046525570138,-1.2547584673937013,-2.133047405042989,9.613456395145874,0.0010852115594848783,0.0021844621423521057,0.0,24.569335703759947,45.938393793492025,-40.5625
1772306152.8553667,27.530718176691447,7.116836082180384,-12.464046525570138,-1.2513227096527413,-2.136447046355424,9.615645304066435,-0.0010880193641613482,-0.0010936349735142876,-0.001090830782496456,24.569335703759947,45.938393793492025,-40.5625
1772306152.8744717,27.530718176691447,7.116836082180384,-12.464046525570138,-1.2490362512560613,-2.1387094696723676,9.617101998501354,0.001090827168837818,2.8078046764698056e-06,0.0,24.944334461475616,45.93935904563798,-40.6875
1772306152.9583154,27.465609234272883,7.116683760883961,-12.466588768709151,-1.2508597393602574,-2.1402236974535467,9.61807141237545,2.8078046764698056e-06,-0.001090827168837818,0.0,24.944334461475616,45.93935904563798,-40.6875
1772306152.9965913,27.465609234272883,7.116683760883961,-12.466588768709151,-1.2508597393602574,-2.1402236974535467,9.61807141237545,2.8078046764698056e-06,-0.001090827168837818,0.0,24.944334461475616,45.93935904563798,-40.6875
1772306153.044154,27.38588484232089,7.113072222928524,-12.462888197343558,-1.2520818606605806,-2.1378862985011153,9.622061658186917,-0.0021900777517050453,0.0032668658971605146,0.0,24.25297573041308,47.43758444756641,-39.0
1772306153.076126,27.34960564495325,7.1160554978485395,-12.463659972741322,-1.2529037790706332,-2.1329856849829563,9.624717122200481,-0.0010880193641613482,-0.0010936349735142876,0.003272492347489368,24.25297573041308,47.43758444756641,-39.0
1772306153.1075213,27.21158079112709,7.112929629234239,-12.461893448433571,-1.253450756591093,-2.1297243814300613,9.613103857008754,-1.1231218705879222e-05,0.004363308675351272,0.001090830782496456,23.13087521370393,46.309692417981545,-39.375
1772306153.1262972,27.21158079112709,7.112929629234239,-12.461893448433571,-1.2571684749832701,-2.1242175300576616,9.605375358752333,-0.002181654337675636,-5.615609352939611e-06,0.0,23.13087521370393,46.309692417981545,-39.375
1772306153.1566648,27.21158079112709,7.112929629234239,-12.461893448433571,-1.2596425750436282,-2.12055278198489,9.600232129495666,5.615609352939611e-06,-0.002181654337675636,0.0,23.13087521370393,46.309692417981545,-39.375
1772306153.1832893,27.21158079112709,7.112929629234239,-12.461893448433571,-1.2596425750436282,-2.12055278198489,9.600232129495666,5.615609352939611e-06,-0.002181654337675636,0.0,23.13087521370393,46.309692417981545,-39.375
1772306153.2326438,27.21158079112709,7.112929629234239,-12.461893448433571,-1.2579207048530134,-2.116479415787675,9.600102804439038,0.0,0.0,0.001090830782496456,23.12974908620032,46.747190968649825,-39.875
1772306153.262666,27.21158079112709,7.112929629234239,-12.461893448433571,-1.2601431756189843,-2.1154031533786144,9.606758638620418,-0.001090827168837818,-2.8078046764698056e-06,0.0,23.12974908620032,46.747190968649825,-39.375
1772306153.2834878,27.21158079112709,7.112929629234239,-12.461893448433571,-1.254940614172244,-2.111324591468896,9.611188021917586,-2.8078046764698056e-06,0.001090827168837818,-0.002181661564992912,23.12974908620032,46.747190968649825,-39.375
1772306153.3079703,27.21158079112709,7.112929629234239,-12.461893448433571,-1.254940614172244,-2.111324591468896,9.611188021917586,-2.8078046764698056e-06,0.001090827168837818,-0.002181661564992912,23.12974908620032,46.747190968649825,-39.375
1772306153.3352594,27.21158079112709,7.112929629234239,-12.461893448433571,-1.251461146972503,-2.1153005553300464,9.60410039190044,-0.0010936349735142879,0.0010880193641613482,0.0,23.12974908620032,46.747190968649825,-39.375
1772306153.3660126,27.21158079112709,7.112929629234239,-12.461893448433571,-1.2491456004192707,-2.1179465148652157,9.599383653298045,-2.8078046764698056e-06,0.001090827168837818,0.001090830782496456,23.882642358069518,45.624125199794726,-39.5
1772306153.3976138,27.21158079112709,7.112929629234239,-12.461893448433571,-1.2509497306802175,-2.119715981715243,9.599589828154892,-0.0010992505828672275,0.003269673701836984,0.0,23.882642358069518,45.624125199794726,-39.5
1772306153.4250064,27.21158079112709,7.112929629234239,-12.461893448433571,-1.2521503592154222,-2.120893542137696,9.599727035219,-0.0010964427781907577,0.002178846532999166,-0.002181661564992912,23.882642358069518,45.624125199794726,-39.5
1772306153.4625905,27.21158079112709,7.112929629234239,-12.461893448433571,-1.2529579744303783,-2.118332094818854,9.599818344987462,-2.8078046764698056e-06,0.001090827168837818,0.001090830782496456,23.882642358069518,45.624125199794726,-38.5625
1772306153.5119803,27.21158079112709,7.112929629234239,-12.461893448433571,-1.253504043670956,-2.113282379615633,9.599879110618375,0.001090827168837818,2.8078046764698056e-06,-0.001090830782496456,23.882642358069518,45.624125199794726,-38.5625
1772306153.5755568,27.21158079112709,7.112929629234239,-12.461893448433571,-1.253504043670956,-2.113282379615633,9.599879110618375,0.001090827168837818,2.8078046764698056e-06,-0.001090830782496456,23.882642358069518,45.624125199794726,-38.5625
1772306153.6159759,27.21158079112709,7.112929629234239,-12.461893448433571,-1.25385883631389,-2.113266951182677,9.599919549466952,0.0,0.0,-0.002181661564992912,23.881837981281222,45.936624164557784,-39.875
1772306153.6336424,27.21158079112709,7.112929629234239,-12.461893448433571,-1.2541035571911463,-2.109911583107119,9.606636684483586,0.003272481506513454,8.423414029409417e-06,0.0,23.881837981281222,45.936624164557784,-39.875
1772306153.6491988,27.21158079112709,7.112929629234239,-12.461893448433571,-1.2542491955278947,-2.114368824386298,9.611106862801842,0.0,0.0,-0.002181661564992912,23.881837981281222,45.936624164557784,-39.875
1772306153.669725,27.21158079112709,7.112929629234239,-12.461893448433571,-1.2542491955278947,-2.114368824386298,9.611106862801842,0.0,0.0,-0.002181661564992912,23.881837981281222,45.936624164557784,-39.875
1772306153.7027295,27.21158079112709,7.112929629234239,-12.461893448433571,-1.2543547265507913,-2.1139899680411713,9.610736604830159,0.0,0.0,-0.002181661564992912,23.88087272913527,46.31162292227345,-41.0
1772306153.7239873,27.21158079112709,7.112929629234239,-12.461893448433571,-1.2543547265507913,-2.1139899680411713,9.610736604830159,0.0,0.0,-0.002181661564992912,23.88087272913527,46.31162292227345,-41.0
1772306153.7521799,27.21158079112709,7.112929629234239,-12.461893448433571,-1.2510626349685425,-2.1204194342904614,9.607145090578737,0.0021760387283226964,0.0021872699470285753,0.001090830782496456,23.88087272913527,46.31162292227345,-41.0
1772306153.7859764,27.21158079112709,7.112929629234239,-12.461893448433571,-1.2488803951323058,-2.121353071631747,9.604754977964257,-0.0010992505828672275,0.003269673701836984,0.0,24.570140080548242,45.625894828728974,-40.5625
1772306153.815473,27.21158079112709,7.112929629234239,-12.461893448433571,-1.2507732395242794,-2.121983007189637,9.603164384718628,-2.8078046764698056e-06,0.001090827168837818,0.0,24.570140080548242,45.625894828728974,-40.5625
1772306153.8341942,27.21158079112709,7.112929629234239,-12.461893448433571,-1.2507732395242794,-2.121983007189637,9.603164384718628,-2.8078046764698056e-06,0.001090827168837818,0.0,24.570140080548242,45.625894828728974,-40.5625
1772306153.8533046,27.21158079112709,7.112929629234239,-12.461893448433571,-1.2520329063226807,-2.122402222266572,9.612141197803712,0.0,0.0,-0.001090830782496456,24.25860636793114,45.250091694225006,-40.5625
1772306153.8994498,27.21158079112709,7.112929629234239,-12.461893448433571,-1.2495260998798436,-2.1226725948806555,9.618115166634263,2.8078046764698056e-06,-0.001090827168837818,-0.001090830782496456,24.25860636793114,45.250091694225006,-40.5625
1772306153.9218974,27.21158079112709,7.112929629234239,-12.461893448433571,-1.2478664585316754,-2.119507424209295,9.62543588786471,-2.8078046764698056e-06,0.001090827168837818,-0.001090830782496456,23.44224805096338,46.74799534543812,-40.1875
1772306153.950799,27.21158079112709,7.112929629234239,-12.461893448433571,-1.2478664585316754,-2.119507424209295,9.62543588786471,-2.8078046764698056e-06,0.001090827168837818,-0.001090830782496456,23.44224805096338,46.74799534543812,-40.1875
1772306153.9769912,27.21158079112709,7.112929629234239,-12.461893448433571,-1.2467447650805237,-2.1240912397363236,9.630307746065757,-5.615609352939611e-06,0.002181654337675636,-0.001090830782496456,23.44224805096338,46.74799534543812,-40.1875
1772306154.0113797,27.21158079112709,7.112929629234239,-12.461893448433571,-1.2467447650805237,-2.1240912397363236,9.630307746065757,-5.615609352939611e-06,0.002181654337675636,-0.001090830782496456,23.44224805096338,46.74799534543812,-40.1875
1772306154.0345926,27.21158079112709,7.112929629234239,-12.461893448433571,-1.2460155112922735,-2.1204515165134405,9.620169466447054,-0.0010880193641613482,-0.0010936349735142876,-0.001090830782496456,24.568370451613994,46.3133925512077,-39.875
1772306154.0524728,27.21158079112709,7.112929629234239,-12.461893448433571,-1.2455302010424916,-2.118029321366984,9.61342255461281,-5.615609352939611e-06,0.002181654337675636,-0.001090830782496456,24.568370451613994,46.3133925512077,-39.875
1772306154.068267,27.21158079112709,7.112929629234239,-12.461893448433571,-1.2455302010424916,-2.118029321366984,9.61342255461281,-5.615609352939611e-06,0.002181654337675636,-0.001090830782496456,24.568370451613994,46.3133925512077,-39.875
1772306154.13202,27.21158079112709,7.112929629234239,-12.461893448433571,-1.2452072324925325,-2.1164173775547104,9.615622783569705,0.0,0.0,-0.001090830782496456,23.87974660163166,46.74912147294173,-41.0
1772306154.1728306,27.21158079112709,7.112929629234239,-12.461893448433571,-1.2483374011561028,-2.115353257290912,9.61708701136235,-0.0021788465329991664,-0.0010964427781907575,0.0,23.87974660163166,46.74912147294173,-41.0
1772306154.2207177,27.21158079112709,7.112929629234239,-12.461893448433571,-1.2504032727620795,-2.1213352983939022,9.61471632689454,0.0021760387283226964,0.0021872699470285753,-0.002181661564992912,24.567244324110384,46.75089110187598,-39.875
1772306154.2394252,27.21158079112709,7.112929629234239,-12.461893448433571,-1.2504032727620795,-2.1213352983939022,9.61471632689454,0.0021760387283226964,0.0021872699470285753,-0.002181661564992912,24.567244324110384,46.75089110187598,-39.875
1772306154.2672756,27.21158079112709,7.112929629234239,-12.461893448433571,-1.248432986612786,-2.1253076695874875,9.613138662863493,2.8078046764698056e-06,-0.001090827168837818,0.001090830782496456,24.567244324110384,46.75089110187598,-39.875
1772306154.304788,27.21158079112709,7.112929629234239,-12.461893448433571,-1.2471217831899695,-2.1279512382425247,9.608743633367174,0.0010880193641613482,0.0010936349735142876,0.001090830782496456,24.25587148685094,46.3125881744194,-41.375
1772306154.3317351,27.21158079112709,7.112929629234239,-12.461893448433571,-1.2462664126325413,-2.123020302400309,9.60916390204039,0.0010880193641613482,0.0010936349735142876,0.001090830782496456,24.25587148685094,46.3125881744194,-41.375
1772306154.3953974,27.21158079112709,7.112929629234239,-12.461893448433571,-1.2456971730816884,-2.1197388196794766,9.609443586147705,0.0010852115594848783,0.0021844621423521057,-0.002181661564992912,23.87974660163166,46.74912147294173,-40.1875
1772306154.4532635,27.21158079112709,7.112929629234239,-12.461893448433571,-1.245318350519418,-2.117555029585327,9.609629712796847,-0.0010880193641613482,-0.0010936349735142876,-0.001090830782496456,23.87974660163166,46.74912147294173,-40.1875
1772306154.4814517,27.21158079112709,7.112929629234239,-12.461893448433571,-1.245318350519418,-2.117555029585327,9.609629712796847,-0.0010880193641613482,-0.0010936349735142876,-0.001090830782496456,23.87974660163166,46.74912147294173,-40.1875
1772306154.5063615,27.21158079112709,7.112929629234239,-12.461893448433571,-1.2450576379992753,-2.119446842297977,9.61309868971,0.0,0.0,0.0,24.25587148685094,46.3125881744194,-39.375
1772306154.5215068,27.21158079112709,7.112929629234239,-12.461893448433571,-1.251574337981016,-2.1207230431986672,9.612062143387373,-2.8078046764698056e-06,0.001090827168837818,-0.001090830782496456,24.25587148685094,46.3125881744194,-39.375
1772306154.5448236,27.21158079112709,7.112929629234239,-12.461893448433571,-1.251574337981016,-2.1207230431986672,9.612062143387373,-2.8078046764698056e-06,0.001090827168837818,-0.001090830782496456,24.25587148685094,46.3125881744194,-39.375
1772306154.5736065,27.21158079112709,7.112929629234239,-12.461893448433571,-1.2559025186858785,-2.1249174412677516,9.614717445095966,0.0010880193641613482,0.0010936349735142876,0.001090830782496456,24.256836738996892,45.93758941670374,-40.1875
1772306154.6103141,27.21158079112709,7.112929629234239,-12.461893448433571,-1.2559025186858785,-2.1249174412677516,9.614717445095966,0.0010880193641613482,0.0010936349735142876,0.001090830782496456,24.256836738996892,45.93758941670374,-40.1875
1772306154.637264,27.21158079112709,7.112929629234239,-12.461893448433571,-1.2554377739702454,-2.1277001559915534,9.613139407014051,0.0010936349735142879,-0.0010880193641613482,-0.002181661564992912,24.256836738996892,45.93758941670374,-40.1875
1772306154.664303,27.21158079112709,7.112929629234239,-12.461893448433571,-1.25512849155353,-2.1295520215552832,9.612089240298376,-0.0010852115594848783,-0.0021844621423521057,0.001090830782496456,23.444339430612942,45.93549803705417,-39.875
1772306154.6919706,27.21158079112709,7.112929629234239,-12.461893448433571,-1.25512849155353,-2.1295520215552832,9.612089240298376,-0.0010852115594848783,-0.0021844621423521057,0.001090830782496456,23.444339430612942,45.93549803705417,-39.875
1772306154.7616467,27.21158079112709,7.112929629234239,-12.461893448433571,-1.2549226675601168,-2.1307844174012516,9.608045254372906,-2.8078046764698056e-06,0.001090827168837818,0.001090830782496456,23.444339430612942,45.93549803705417,-39.875
1772306154.7972207,27.21158079112709,7.112929629234239,-12.461893448433571,-1.2581394049541552,-2.1282680727808843,9.605354026913789,-2.8078046764698056e-06,0.001090827168837818,0.001090830782496456,22.44434274337116,45.93292403133163,-40.5625
1772306154.8342469,27.21158079112709,7.112929629234239,-12.461893448433571,-1.2602801077565768,-2.1265934735454413,9.603563045102726,0.0,0.0,0.0,22.44434274337116,45.93292403133163,-40.5625
1772306154.8599577,27.21158079112709,7.112929629234239,-12.461893448433571,-1.2583768416059524,-2.1187802348725295,9.602371166714043,0.0010824037548084085,0.003275289311189924,-0.002181661564992912,23.444339430612942,45.93549803705417,-39.375
1772306154.8979187,27.21158079112709,7.112929629234239,-12.461893448433571,-1.2583768416059524,-2.1187802348725295,9.602371166714043,0.0010824037548084085,0.003275289311189924,-0.002181661564992912,23.444339430612942,45.93549803705417,-39.375
1772306154.918286,27.21158079112709,7.112929629234239,-12.461893448433571,-1.2570930185702336,-2.1202708130668477,9.601577984960528,-0.0010852115594848783,-0.0021844621423521057,0.0,23.444339430612942,45.93549803705417,-39.375
1772306154.9326613,27.21158079112709,7.112929629234239,-12.461893448433571,-1.2570930185702336,-2.1202708130668477,9.601577984960528,-0.0010852115594848783,-0.0021844621423521057,0.0,23.444339430612942,45.93549803705417,-39.375
